# 
#                 ----------------------------------------------------
#                 Data from a 3D direct N-body simulation. 
# 
#                 rows are i-particle; 
#                 coumns are :mass, tag, x ,y, z, vx, vy, vz, ax, ay, az
# 
#                 NTHU, Computational Physics 
# 
#                 ----------------------------------------------------
#                 Time = 0.0
0.000000000000000000e+00 1.000000000000000000e+00 2.000000000000000000e+00 3.000000000000000000e+00 4.000000000000000000e+00 5.000000000000000000e+00 6.000000000000000000e+00 7.000000000000000000e+00 8.000000000000000000e+00 9.000000000000000000e+00 1.000000000000000000e+01 1.100000000000000000e+01 1.200000000000000000e+01 1.300000000000000000e+01 1.400000000000000000e+01 1.500000000000000000e+01 1.600000000000000000e+01 1.700000000000000000e+01 1.800000000000000000e+01 1.900000000000000000e+01 2.000000000000000000e+01 2.100000000000000000e+01 2.200000000000000000e+01 2.300000000000000000e+01 2.400000000000000000e+01 2.500000000000000000e+01 2.600000000000000000e+01 2.700000000000000000e+01 2.800000000000000000e+01 2.900000000000000000e+01 3.000000000000000000e+01 3.100000000000000000e+01 3.200000000000000000e+01 3.300000000000000000e+01 3.400000000000000000e+01 3.500000000000000000e+01 3.600000000000000000e+01 3.700000000000000000e+01 3.800000000000000000e+01 3.900000000000000000e+01 4.000000000000000000e+01 4.100000000000000000e+01 4.200000000000000000e+01 4.300000000000000000e+01 4.400000000000000000e+01 4.500000000000000000e+01 4.600000000000000000e+01 4.700000000000000000e+01 4.800000000000000000e+01 4.900000000000000000e+01 5.000000000000000000e+01 5.100000000000000000e+01 5.200000000000000000e+01 5.300000000000000000e+01 5.400000000000000000e+01 5.500000000000000000e+01 5.600000000000000000e+01 5.700000000000000000e+01 5.800000000000000000e+01 5.900000000000000000e+01 6.000000000000000000e+01 6.100000000000000000e+01 6.200000000000000000e+01 6.300000000000000000e+01 6.400000000000000000e+01 6.500000000000000000e+01 6.600000000000000000e+01 6.700000000000000000e+01 6.800000000000000000e+01 6.900000000000000000e+01 7.000000000000000000e+01 7.100000000000000000e+01 7.200000000000000000e+01 7.300000000000000000e+01 7.400000000000000000e+01 7.500000000000000000e+01 7.600000000000000000e+01 7.700000000000000000e+01 7.800000000000000000e+01 7.900000000000000000e+01 8.000000000000000000e+01 8.100000000000000000e+01 8.200000000000000000e+01 8.300000000000000000e+01 8.400000000000000000e+01 8.500000000000000000e+01 8.600000000000000000e+01 8.700000000000000000e+01 8.800000000000000000e+01 8.900000000000000000e+01 9.000000000000000000e+01 9.100000000000000000e+01 9.200000000000000000e+01 9.300000000000000000e+01 9.400000000000000000e+01 9.500000000000000000e+01 9.600000000000000000e+01 9.700000000000000000e+01 9.800000000000000000e+01 9.900000000000000000e+01 1.000000000000000000e+02 1.010000000000000000e+02 1.020000000000000000e+02 1.030000000000000000e+02 1.040000000000000000e+02 1.050000000000000000e+02 1.060000000000000000e+02 1.070000000000000000e+02 1.080000000000000000e+02 1.090000000000000000e+02 1.100000000000000000e+02 1.110000000000000000e+02 1.120000000000000000e+02 1.130000000000000000e+02 1.140000000000000000e+02 1.150000000000000000e+02 1.160000000000000000e+02 1.170000000000000000e+02 1.180000000000000000e+02 1.190000000000000000e+02 1.200000000000000000e+02 1.210000000000000000e+02 1.220000000000000000e+02 1.230000000000000000e+02 1.240000000000000000e+02 1.250000000000000000e+02 1.260000000000000000e+02 1.270000000000000000e+02 1.280000000000000000e+02 1.290000000000000000e+02 1.300000000000000000e+02 1.310000000000000000e+02 1.320000000000000000e+02 1.330000000000000000e+02 1.340000000000000000e+02 1.350000000000000000e+02 1.360000000000000000e+02 1.370000000000000000e+02 1.380000000000000000e+02 1.390000000000000000e+02 1.400000000000000000e+02 1.410000000000000000e+02 1.420000000000000000e+02 1.430000000000000000e+02 1.440000000000000000e+02 1.450000000000000000e+02 1.460000000000000000e+02 1.470000000000000000e+02 1.480000000000000000e+02 1.490000000000000000e+02 1.500000000000000000e+02 1.510000000000000000e+02 1.520000000000000000e+02 1.530000000000000000e+02 1.540000000000000000e+02 1.550000000000000000e+02 1.560000000000000000e+02 1.570000000000000000e+02 1.580000000000000000e+02 1.590000000000000000e+02 1.600000000000000000e+02 1.610000000000000000e+02 1.620000000000000000e+02 1.630000000000000000e+02 1.640000000000000000e+02 1.650000000000000000e+02 1.660000000000000000e+02 1.670000000000000000e+02 1.680000000000000000e+02 1.690000000000000000e+02 1.700000000000000000e+02 1.710000000000000000e+02 1.720000000000000000e+02 1.730000000000000000e+02 1.740000000000000000e+02 1.750000000000000000e+02 1.760000000000000000e+02 1.770000000000000000e+02 1.780000000000000000e+02 1.790000000000000000e+02 1.800000000000000000e+02 1.810000000000000000e+02 1.820000000000000000e+02 1.830000000000000000e+02 1.840000000000000000e+02 1.850000000000000000e+02 1.860000000000000000e+02 1.870000000000000000e+02 1.880000000000000000e+02 1.890000000000000000e+02 1.900000000000000000e+02 1.910000000000000000e+02 1.920000000000000000e+02 1.930000000000000000e+02 1.940000000000000000e+02 1.950000000000000000e+02 1.960000000000000000e+02 1.970000000000000000e+02 1.980000000000000000e+02 1.990000000000000000e+02 2.000000000000000000e+02 2.010000000000000000e+02 2.020000000000000000e+02 2.030000000000000000e+02 2.040000000000000000e+02 2.050000000000000000e+02 2.060000000000000000e+02 2.070000000000000000e+02 2.080000000000000000e+02 2.090000000000000000e+02 2.100000000000000000e+02 2.110000000000000000e+02 2.120000000000000000e+02 2.130000000000000000e+02 2.140000000000000000e+02 2.150000000000000000e+02 2.160000000000000000e+02 2.170000000000000000e+02 2.180000000000000000e+02 2.190000000000000000e+02 2.200000000000000000e+02 2.210000000000000000e+02 2.220000000000000000e+02 2.230000000000000000e+02 2.240000000000000000e+02 2.250000000000000000e+02 2.260000000000000000e+02 2.270000000000000000e+02 2.280000000000000000e+02 2.290000000000000000e+02 2.300000000000000000e+02 2.310000000000000000e+02 2.320000000000000000e+02 2.330000000000000000e+02 2.340000000000000000e+02 2.350000000000000000e+02 2.360000000000000000e+02 2.370000000000000000e+02 2.380000000000000000e+02 2.390000000000000000e+02 2.400000000000000000e+02 2.410000000000000000e+02 2.420000000000000000e+02 2.430000000000000000e+02 2.440000000000000000e+02 2.450000000000000000e+02 2.460000000000000000e+02 2.470000000000000000e+02 2.480000000000000000e+02 2.490000000000000000e+02 2.500000000000000000e+02 2.510000000000000000e+02 2.520000000000000000e+02 2.530000000000000000e+02 2.540000000000000000e+02 2.550000000000000000e+02 2.560000000000000000e+02 2.570000000000000000e+02 2.580000000000000000e+02 2.590000000000000000e+02 2.600000000000000000e+02 2.610000000000000000e+02 2.620000000000000000e+02 2.630000000000000000e+02 2.640000000000000000e+02 2.650000000000000000e+02 2.660000000000000000e+02 2.670000000000000000e+02 2.680000000000000000e+02 2.690000000000000000e+02 2.700000000000000000e+02 2.710000000000000000e+02 2.720000000000000000e+02 2.730000000000000000e+02 2.740000000000000000e+02 2.750000000000000000e+02 2.760000000000000000e+02 2.770000000000000000e+02 2.780000000000000000e+02 2.790000000000000000e+02 2.800000000000000000e+02 2.810000000000000000e+02 2.820000000000000000e+02 2.830000000000000000e+02 2.840000000000000000e+02 2.850000000000000000e+02 2.860000000000000000e+02 2.870000000000000000e+02 2.880000000000000000e+02 2.890000000000000000e+02 2.900000000000000000e+02 2.910000000000000000e+02 2.920000000000000000e+02 2.930000000000000000e+02 2.940000000000000000e+02 2.950000000000000000e+02 2.960000000000000000e+02 2.970000000000000000e+02 2.980000000000000000e+02 2.990000000000000000e+02 3.000000000000000000e+02 3.010000000000000000e+02 3.020000000000000000e+02 3.030000000000000000e+02 3.040000000000000000e+02 3.050000000000000000e+02 3.060000000000000000e+02 3.070000000000000000e+02 3.080000000000000000e+02 3.090000000000000000e+02 3.100000000000000000e+02 3.110000000000000000e+02 3.120000000000000000e+02 3.130000000000000000e+02 3.140000000000000000e+02 3.150000000000000000e+02 3.160000000000000000e+02 3.170000000000000000e+02 3.180000000000000000e+02 3.190000000000000000e+02 3.200000000000000000e+02 3.210000000000000000e+02 3.220000000000000000e+02 3.230000000000000000e+02 3.240000000000000000e+02 3.250000000000000000e+02 3.260000000000000000e+02 3.270000000000000000e+02 3.280000000000000000e+02 3.290000000000000000e+02 3.300000000000000000e+02 3.310000000000000000e+02 3.320000000000000000e+02 3.330000000000000000e+02 3.340000000000000000e+02 3.350000000000000000e+02 3.360000000000000000e+02 3.370000000000000000e+02 3.380000000000000000e+02 3.390000000000000000e+02 3.400000000000000000e+02 3.410000000000000000e+02 3.420000000000000000e+02 3.430000000000000000e+02 3.440000000000000000e+02 3.450000000000000000e+02 3.460000000000000000e+02 3.470000000000000000e+02 3.480000000000000000e+02 3.490000000000000000e+02 3.500000000000000000e+02 3.510000000000000000e+02 3.520000000000000000e+02 3.530000000000000000e+02 3.540000000000000000e+02 3.550000000000000000e+02 3.560000000000000000e+02 3.570000000000000000e+02 3.580000000000000000e+02 3.590000000000000000e+02 3.600000000000000000e+02 3.610000000000000000e+02 3.620000000000000000e+02 3.630000000000000000e+02 3.640000000000000000e+02 3.650000000000000000e+02 3.660000000000000000e+02 3.670000000000000000e+02 3.680000000000000000e+02 3.690000000000000000e+02 3.700000000000000000e+02 3.710000000000000000e+02 3.720000000000000000e+02 3.730000000000000000e+02 3.740000000000000000e+02 3.750000000000000000e+02 3.760000000000000000e+02 3.770000000000000000e+02 3.780000000000000000e+02 3.790000000000000000e+02 3.800000000000000000e+02 3.810000000000000000e+02 3.820000000000000000e+02 3.830000000000000000e+02 3.840000000000000000e+02 3.850000000000000000e+02 3.860000000000000000e+02 3.870000000000000000e+02 3.880000000000000000e+02 3.890000000000000000e+02 3.900000000000000000e+02 3.910000000000000000e+02 3.920000000000000000e+02 3.930000000000000000e+02 3.940000000000000000e+02 3.950000000000000000e+02 3.960000000000000000e+02 3.970000000000000000e+02 3.980000000000000000e+02 3.990000000000000000e+02 4.000000000000000000e+02 4.010000000000000000e+02 4.020000000000000000e+02 4.030000000000000000e+02 4.040000000000000000e+02 4.050000000000000000e+02 4.060000000000000000e+02 4.070000000000000000e+02 4.080000000000000000e+02 4.090000000000000000e+02 4.100000000000000000e+02 4.110000000000000000e+02 4.120000000000000000e+02 4.130000000000000000e+02 4.140000000000000000e+02 4.150000000000000000e+02 4.160000000000000000e+02 4.170000000000000000e+02 4.180000000000000000e+02 4.190000000000000000e+02 4.200000000000000000e+02 4.210000000000000000e+02 4.220000000000000000e+02 4.230000000000000000e+02 4.240000000000000000e+02 4.250000000000000000e+02 4.260000000000000000e+02 4.270000000000000000e+02 4.280000000000000000e+02 4.290000000000000000e+02 4.300000000000000000e+02 4.310000000000000000e+02 4.320000000000000000e+02 4.330000000000000000e+02 4.340000000000000000e+02 4.350000000000000000e+02 4.360000000000000000e+02 4.370000000000000000e+02 4.380000000000000000e+02 4.390000000000000000e+02 4.400000000000000000e+02 4.410000000000000000e+02 4.420000000000000000e+02 4.430000000000000000e+02 4.440000000000000000e+02 4.450000000000000000e+02 4.460000000000000000e+02 4.470000000000000000e+02 4.480000000000000000e+02 4.490000000000000000e+02 4.500000000000000000e+02 4.510000000000000000e+02 4.520000000000000000e+02 4.530000000000000000e+02 4.540000000000000000e+02 4.550000000000000000e+02 4.560000000000000000e+02 4.570000000000000000e+02 4.580000000000000000e+02 4.590000000000000000e+02 4.600000000000000000e+02 4.610000000000000000e+02 4.620000000000000000e+02 4.630000000000000000e+02 4.640000000000000000e+02 4.650000000000000000e+02 4.660000000000000000e+02 4.670000000000000000e+02 4.680000000000000000e+02 4.690000000000000000e+02 4.700000000000000000e+02 4.710000000000000000e+02 4.720000000000000000e+02 4.730000000000000000e+02 4.740000000000000000e+02 4.750000000000000000e+02 4.760000000000000000e+02 4.770000000000000000e+02 4.780000000000000000e+02 4.790000000000000000e+02 4.800000000000000000e+02 4.810000000000000000e+02 4.820000000000000000e+02 4.830000000000000000e+02 4.840000000000000000e+02 4.850000000000000000e+02 4.860000000000000000e+02 4.870000000000000000e+02 4.880000000000000000e+02 4.890000000000000000e+02 4.900000000000000000e+02 4.910000000000000000e+02 4.920000000000000000e+02 4.930000000000000000e+02 4.940000000000000000e+02 4.950000000000000000e+02 4.960000000000000000e+02 4.970000000000000000e+02 4.980000000000000000e+02 4.990000000000000000e+02 5.000000000000000000e+02 5.010000000000000000e+02 5.020000000000000000e+02 5.030000000000000000e+02 5.040000000000000000e+02 5.050000000000000000e+02 5.060000000000000000e+02 5.070000000000000000e+02 5.080000000000000000e+02 5.090000000000000000e+02 5.100000000000000000e+02 5.110000000000000000e+02 5.120000000000000000e+02 5.130000000000000000e+02 5.140000000000000000e+02 5.150000000000000000e+02 5.160000000000000000e+02 5.170000000000000000e+02 5.180000000000000000e+02 5.190000000000000000e+02 5.200000000000000000e+02 5.210000000000000000e+02 5.220000000000000000e+02 5.230000000000000000e+02 5.240000000000000000e+02 5.250000000000000000e+02 5.260000000000000000e+02 5.270000000000000000e+02 5.280000000000000000e+02 5.290000000000000000e+02 5.300000000000000000e+02 5.310000000000000000e+02 5.320000000000000000e+02 5.330000000000000000e+02 5.340000000000000000e+02 5.350000000000000000e+02 5.360000000000000000e+02 5.370000000000000000e+02 5.380000000000000000e+02 5.390000000000000000e+02 5.400000000000000000e+02 5.410000000000000000e+02 5.420000000000000000e+02 5.430000000000000000e+02 5.440000000000000000e+02 5.450000000000000000e+02 5.460000000000000000e+02 5.470000000000000000e+02 5.480000000000000000e+02 5.490000000000000000e+02 5.500000000000000000e+02 5.510000000000000000e+02 5.520000000000000000e+02 5.530000000000000000e+02 5.540000000000000000e+02 5.550000000000000000e+02 5.560000000000000000e+02 5.570000000000000000e+02 5.580000000000000000e+02 5.590000000000000000e+02 5.600000000000000000e+02 5.610000000000000000e+02 5.620000000000000000e+02 5.630000000000000000e+02 5.640000000000000000e+02 5.650000000000000000e+02 5.660000000000000000e+02 5.670000000000000000e+02 5.680000000000000000e+02 5.690000000000000000e+02 5.700000000000000000e+02 5.710000000000000000e+02 5.720000000000000000e+02 5.730000000000000000e+02 5.740000000000000000e+02 5.750000000000000000e+02 5.760000000000000000e+02 5.770000000000000000e+02 5.780000000000000000e+02 5.790000000000000000e+02 5.800000000000000000e+02 5.810000000000000000e+02 5.820000000000000000e+02 5.830000000000000000e+02 5.840000000000000000e+02 5.850000000000000000e+02 5.860000000000000000e+02 5.870000000000000000e+02 5.880000000000000000e+02 5.890000000000000000e+02 5.900000000000000000e+02 5.910000000000000000e+02 5.920000000000000000e+02 5.930000000000000000e+02 5.940000000000000000e+02 5.950000000000000000e+02 5.960000000000000000e+02 5.970000000000000000e+02 5.980000000000000000e+02 5.990000000000000000e+02 6.000000000000000000e+02 6.010000000000000000e+02 6.020000000000000000e+02 6.030000000000000000e+02 6.040000000000000000e+02 6.050000000000000000e+02 6.060000000000000000e+02 6.070000000000000000e+02 6.080000000000000000e+02 6.090000000000000000e+02 6.100000000000000000e+02 6.110000000000000000e+02 6.120000000000000000e+02 6.130000000000000000e+02 6.140000000000000000e+02 6.150000000000000000e+02 6.160000000000000000e+02 6.170000000000000000e+02 6.180000000000000000e+02 6.190000000000000000e+02 6.200000000000000000e+02 6.210000000000000000e+02 6.220000000000000000e+02 6.230000000000000000e+02 6.240000000000000000e+02 6.250000000000000000e+02 6.260000000000000000e+02 6.270000000000000000e+02 6.280000000000000000e+02 6.290000000000000000e+02 6.300000000000000000e+02 6.310000000000000000e+02 6.320000000000000000e+02 6.330000000000000000e+02 6.340000000000000000e+02 6.350000000000000000e+02 6.360000000000000000e+02 6.370000000000000000e+02 6.380000000000000000e+02 6.390000000000000000e+02 6.400000000000000000e+02 6.410000000000000000e+02 6.420000000000000000e+02 6.430000000000000000e+02 6.440000000000000000e+02 6.450000000000000000e+02 6.460000000000000000e+02 6.470000000000000000e+02 6.480000000000000000e+02 6.490000000000000000e+02 6.500000000000000000e+02 6.510000000000000000e+02 6.520000000000000000e+02 6.530000000000000000e+02 6.540000000000000000e+02 6.550000000000000000e+02 6.560000000000000000e+02 6.570000000000000000e+02 6.580000000000000000e+02 6.590000000000000000e+02 6.600000000000000000e+02 6.610000000000000000e+02 6.620000000000000000e+02 6.630000000000000000e+02 6.640000000000000000e+02 6.650000000000000000e+02 6.660000000000000000e+02 6.670000000000000000e+02 6.680000000000000000e+02 6.690000000000000000e+02 6.700000000000000000e+02 6.710000000000000000e+02 6.720000000000000000e+02 6.730000000000000000e+02 6.740000000000000000e+02 6.750000000000000000e+02 6.760000000000000000e+02 6.770000000000000000e+02 6.780000000000000000e+02 6.790000000000000000e+02 6.800000000000000000e+02 6.810000000000000000e+02 6.820000000000000000e+02 6.830000000000000000e+02 6.840000000000000000e+02 6.850000000000000000e+02 6.860000000000000000e+02 6.870000000000000000e+02 6.880000000000000000e+02 6.890000000000000000e+02 6.900000000000000000e+02 6.910000000000000000e+02 6.920000000000000000e+02 6.930000000000000000e+02 6.940000000000000000e+02 6.950000000000000000e+02 6.960000000000000000e+02 6.970000000000000000e+02 6.980000000000000000e+02 6.990000000000000000e+02 7.000000000000000000e+02 7.010000000000000000e+02 7.020000000000000000e+02 7.030000000000000000e+02 7.040000000000000000e+02 7.050000000000000000e+02 7.060000000000000000e+02 7.070000000000000000e+02 7.080000000000000000e+02 7.090000000000000000e+02 7.100000000000000000e+02 7.110000000000000000e+02 7.120000000000000000e+02 7.130000000000000000e+02 7.140000000000000000e+02 7.150000000000000000e+02 7.160000000000000000e+02 7.170000000000000000e+02 7.180000000000000000e+02 7.190000000000000000e+02 7.200000000000000000e+02 7.210000000000000000e+02 7.220000000000000000e+02 7.230000000000000000e+02 7.240000000000000000e+02 7.250000000000000000e+02 7.260000000000000000e+02 7.270000000000000000e+02 7.280000000000000000e+02 7.290000000000000000e+02 7.300000000000000000e+02 7.310000000000000000e+02 7.320000000000000000e+02 7.330000000000000000e+02 7.340000000000000000e+02 7.350000000000000000e+02 7.360000000000000000e+02 7.370000000000000000e+02 7.380000000000000000e+02 7.390000000000000000e+02 7.400000000000000000e+02 7.410000000000000000e+02 7.420000000000000000e+02 7.430000000000000000e+02 7.440000000000000000e+02 7.450000000000000000e+02 7.460000000000000000e+02 7.470000000000000000e+02 7.480000000000000000e+02 7.490000000000000000e+02 7.500000000000000000e+02 7.510000000000000000e+02 7.520000000000000000e+02 7.530000000000000000e+02 7.540000000000000000e+02 7.550000000000000000e+02 7.560000000000000000e+02 7.570000000000000000e+02 7.580000000000000000e+02 7.590000000000000000e+02 7.600000000000000000e+02 7.610000000000000000e+02 7.620000000000000000e+02 7.630000000000000000e+02 7.640000000000000000e+02 7.650000000000000000e+02 7.660000000000000000e+02 7.670000000000000000e+02 7.680000000000000000e+02 7.690000000000000000e+02 7.700000000000000000e+02 7.710000000000000000e+02 7.720000000000000000e+02 7.730000000000000000e+02 7.740000000000000000e+02 7.750000000000000000e+02 7.760000000000000000e+02 7.770000000000000000e+02 7.780000000000000000e+02
1.283697047496790838e-02 1.283697047496790838e-02 1.283697047496790838e-02 1.283697047496790838e-02 1.283697047496790838e-02 1.283697047496790838e-02 1.283697047496790838e-02 1.283697047496790838e-02 1.283697047496790838e-02 1.283697047496790838e-02 1.283697047496790838e-02 1.283697047496790838e-02 1.283697047496790838e-02 1.283697047496790838e-02 1.283697047496790838e-02 1.283697047496790838e-02 1.283697047496790838e-02 1.283697047496790838e-02 1.283697047496790838e-02 1.283697047496790838e-02 1.283697047496790838e-02 1.283697047496790838e-02 1.283697047496790838e-02 1.283697047496790838e-02 1.283697047496790838e-02 1.283697047496790838e-02 1.283697047496790838e-02 1.283697047496790838e-02 1.283697047496790838e-02 1.283697047496790838e-02 1.283697047496790838e-02 1.283697047496790838e-02 1.283697047496790838e-02 1.283697047496790838e-02 1.283697047496790838e-02 1.283697047496790838e-02 1.283697047496790838e-02 1.283697047496790838e-02 1.283697047496790838e-02 1.283697047496790838e-02 1.283697047496790838e-02 1.283697047496790838e-02 1.283697047496790838e-02 1.283697047496790838e-02 1.283697047496790838e-02 1.283697047496790838e-02 1.283697047496790838e-02 1.283697047496790838e-02 1.283697047496790838e-02 1.283697047496790838e-02 1.283697047496790838e-02 1.283697047496790838e-02 1.283697047496790838e-02 1.283697047496790838e-02 1.283697047496790838e-02 1.283697047496790838e-02 1.283697047496790838e-02 1.283697047496790838e-02 1.283697047496790838e-02 1.283697047496790838e-02 1.283697047496790838e-02 1.283697047496790838e-02 1.283697047496790838e-02 1.283697047496790838e-02 1.283697047496790838e-02 1.283697047496790838e-02 1.283697047496790838e-02 1.283697047496790838e-02 1.283697047496790838e-02 1.283697047496790838e-02 1.283697047496790838e-02 1.283697047496790838e-02 1.283697047496790838e-02 1.283697047496790838e-02 1.283697047496790838e-02 1.283697047496790838e-02 1.283697047496790838e-02 1.283697047496790838e-02 1.283697047496790838e-02 1.283697047496790838e-02 1.283697047496790838e-02 1.283697047496790838e-02 1.283697047496790838e-02 1.283697047496790838e-02 1.283697047496790838e-02 1.283697047496790838e-02 1.283697047496790838e-02 1.283697047496790838e-02 1.283697047496790838e-02 1.283697047496790838e-02 1.283697047496790838e-02 1.283697047496790838e-02 1.283697047496790838e-02 1.283697047496790838e-02 1.283697047496790838e-02 1.283697047496790838e-02 1.283697047496790838e-02 1.283697047496790838e-02 1.283697047496790838e-02 1.283697047496790838e-02 1.283697047496790838e-02 1.283697047496790838e-02 1.283697047496790838e-02 1.283697047496790838e-02 1.283697047496790838e-02 1.283697047496790838e-02 1.283697047496790838e-02 1.283697047496790838e-02 1.283697047496790838e-02 1.283697047496790838e-02 1.283697047496790838e-02 1.283697047496790838e-02 1.283697047496790838e-02 1.283697047496790838e-02 1.283697047496790838e-02 1.283697047496790838e-02 1.283697047496790838e-02 1.283697047496790838e-02 1.283697047496790838e-02 1.283697047496790838e-02 1.283697047496790838e-02 1.283697047496790838e-02 1.283697047496790838e-02 1.283697047496790838e-02 1.283697047496790838e-02 1.283697047496790838e-02 1.283697047496790838e-02 1.283697047496790838e-02 1.283697047496790838e-02 1.283697047496790838e-02 1.283697047496790838e-02 1.283697047496790838e-02 1.283697047496790838e-02 1.283697047496790838e-02 1.283697047496790838e-02 1.283697047496790838e-02 1.283697047496790838e-02 1.283697047496790838e-02 1.283697047496790838e-02 1.283697047496790838e-02 1.283697047496790838e-02 1.283697047496790838e-02 1.283697047496790838e-02 1.283697047496790838e-02 1.283697047496790838e-02 1.283697047496790838e-02 1.283697047496790838e-02 1.283697047496790838e-02 1.283697047496790838e-02 1.283697047496790838e-02 1.283697047496790838e-02 1.283697047496790838e-02 1.283697047496790838e-02 1.283697047496790838e-02 1.283697047496790838e-02 1.283697047496790838e-02 1.283697047496790838e-02 1.283697047496790838e-02 1.283697047496790838e-02 1.283697047496790838e-02 1.283697047496790838e-02 1.283697047496790838e-02 1.283697047496790838e-02 1.283697047496790838e-02 1.283697047496790838e-02 1.283697047496790838e-02 1.283697047496790838e-02 1.283697047496790838e-02 1.283697047496790838e-02 1.283697047496790838e-02 1.283697047496790838e-02 1.283697047496790838e-02 1.283697047496790838e-02 1.283697047496790838e-02 1.283697047496790838e-02 1.283697047496790838e-02 1.283697047496790838e-02 1.283697047496790838e-02 1.283697047496790838e-02 1.283697047496790838e-02 1.283697047496790838e-02 1.283697047496790838e-02 1.283697047496790838e-02 1.283697047496790838e-02 1.283697047496790838e-02 1.283697047496790838e-02 1.283697047496790838e-02 1.283697047496790838e-02 1.283697047496790838e-02 1.283697047496790838e-02 1.283697047496790838e-02 1.283697047496790838e-02 1.283697047496790838e-02 1.283697047496790838e-02 1.283697047496790838e-02 1.283697047496790838e-02 1.283697047496790838e-02 1.283697047496790838e-02 1.283697047496790838e-02 1.283697047496790838e-02 1.283697047496790838e-02 1.283697047496790838e-02 1.283697047496790838e-02 1.283697047496790838e-02 1.283697047496790838e-02 1.283697047496790838e-02 1.283697047496790838e-02 1.283697047496790838e-02 1.283697047496790838e-02 1.283697047496790838e-02 1.283697047496790838e-02 1.283697047496790838e-02 1.283697047496790838e-02 1.283697047496790838e-02 1.283697047496790838e-02 1.283697047496790838e-02 1.283697047496790838e-02 1.283697047496790838e-02 1.283697047496790838e-02 1.283697047496790838e-02 1.283697047496790838e-02 1.283697047496790838e-02 1.283697047496790838e-02 1.283697047496790838e-02 1.283697047496790838e-02 1.283697047496790838e-02 1.283697047496790838e-02 1.283697047496790838e-02 1.283697047496790838e-02 1.283697047496790838e-02 1.283697047496790838e-02 1.283697047496790838e-02 1.283697047496790838e-02 1.283697047496790838e-02 1.283697047496790838e-02 1.283697047496790838e-02 1.283697047496790838e-02 1.283697047496790838e-02 1.283697047496790838e-02 1.283697047496790838e-02 1.283697047496790838e-02 1.283697047496790838e-02 1.283697047496790838e-02 1.283697047496790838e-02 1.283697047496790838e-02 1.283697047496790838e-02 1.283697047496790838e-02 1.283697047496790838e-02 1.283697047496790838e-02 1.283697047496790838e-02 1.283697047496790838e-02 1.283697047496790838e-02 1.283697047496790838e-02 1.283697047496790838e-02 1.283697047496790838e-02 1.283697047496790838e-02 1.283697047496790838e-02 1.283697047496790838e-02 1.283697047496790838e-02 1.283697047496790838e-02 1.283697047496790838e-02 1.283697047496790838e-02 1.283697047496790838e-02 1.283697047496790838e-02 1.283697047496790838e-02 1.283697047496790838e-02 1.283697047496790838e-02 1.283697047496790838e-02 1.283697047496790838e-02 1.283697047496790838e-02 1.283697047496790838e-02 1.283697047496790838e-02 1.283697047496790838e-02 1.283697047496790838e-02 1.283697047496790838e-02 1.283697047496790838e-02 1.283697047496790838e-02 1.283697047496790838e-02 1.283697047496790838e-02 1.283697047496790838e-02 1.283697047496790838e-02 1.283697047496790838e-02 1.283697047496790838e-02 1.283697047496790838e-02 1.283697047496790838e-02 1.283697047496790838e-02 1.283697047496790838e-02 1.283697047496790838e-02 1.283697047496790838e-02 1.283697047496790838e-02 1.283697047496790838e-02 1.283697047496790838e-02 1.283697047496790838e-02 1.283697047496790838e-02 1.283697047496790838e-02 1.283697047496790838e-02 1.283697047496790838e-02 1.283697047496790838e-02 1.283697047496790838e-02 1.283697047496790838e-02 1.283697047496790838e-02 1.283697047496790838e-02 1.283697047496790838e-02 1.283697047496790838e-02 1.283697047496790838e-02 1.283697047496790838e-02 1.283697047496790838e-02 1.283697047496790838e-02 1.283697047496790838e-02 1.283697047496790838e-02 1.283697047496790838e-02 1.283697047496790838e-02 1.283697047496790838e-02 1.283697047496790838e-02 1.283697047496790838e-02 1.283697047496790838e-02 1.283697047496790838e-02 1.283697047496790838e-02 1.283697047496790838e-02 1.283697047496790838e-02 1.283697047496790838e-02 1.283697047496790838e-02 1.283697047496790838e-02 1.283697047496790838e-02 1.283697047496790838e-02 1.283697047496790838e-02 1.283697047496790838e-02 1.283697047496790838e-02 1.283697047496790838e-02 1.283697047496790838e-02 1.283697047496790838e-02 1.283697047496790838e-02 1.283697047496790838e-02 1.283697047496790838e-02 1.283697047496790838e-02 1.283697047496790838e-02 1.283697047496790838e-02 1.283697047496790838e-02 1.283697047496790838e-02 1.283697047496790838e-02 1.283697047496790838e-02 1.283697047496790838e-02 1.283697047496790838e-02 1.283697047496790838e-02 1.283697047496790838e-02 1.283697047496790838e-02 1.283697047496790838e-02 1.283697047496790838e-02 1.283697047496790838e-02 1.283697047496790838e-02 1.283697047496790838e-02 1.283697047496790838e-02 1.283697047496790838e-02 1.283697047496790838e-02 1.283697047496790838e-02 1.283697047496790838e-02 1.283697047496790838e-02 1.283697047496790838e-02 1.283697047496790838e-02 1.283697047496790838e-02 1.283697047496790838e-02 1.283697047496790838e-02 1.283697047496790838e-02 1.283697047496790838e-02 1.283697047496790838e-02 1.283697047496790838e-02 1.283697047496790838e-02 1.283697047496790838e-02 1.283697047496790838e-02 1.283697047496790838e-02 1.283697047496790838e-02 1.283697047496790838e-02 1.283697047496790838e-02 1.283697047496790838e-02 1.283697047496790838e-02 1.283697047496790838e-02 1.283697047496790838e-02 1.283697047496790838e-02 1.283697047496790838e-02 1.283697047496790838e-02 1.283697047496790838e-02 1.283697047496790838e-02 1.283697047496790838e-02 1.283697047496790838e-02 1.283697047496790838e-02 1.283697047496790838e-02 1.283697047496790838e-02 1.283697047496790838e-02 1.283697047496790838e-02 1.283697047496790838e-02 1.283697047496790838e-02 1.283697047496790838e-02 1.283697047496790838e-02 1.283697047496790838e-02 1.283697047496790838e-02 1.283697047496790838e-02 1.283697047496790838e-02 1.283697047496790838e-02 1.283697047496790838e-02 1.283697047496790838e-02 1.283697047496790838e-02 1.283697047496790838e-02 1.283697047496790838e-02 1.283697047496790838e-02 1.283697047496790838e-02 1.283697047496790838e-02 1.283697047496790838e-02 1.283697047496790838e-02 1.283697047496790838e-02 1.283697047496790838e-02 1.283697047496790838e-02 1.283697047496790838e-02 1.283697047496790838e-02 1.283697047496790838e-02 1.283697047496790838e-02 1.283697047496790838e-02 1.283697047496790838e-02 1.283697047496790838e-02 1.283697047496790838e-02 1.283697047496790838e-02 1.283697047496790838e-02 1.283697047496790838e-02 1.283697047496790838e-02 1.283697047496790838e-02 1.283697047496790838e-02 1.283697047496790838e-02 1.283697047496790838e-02 1.283697047496790838e-02 1.283697047496790838e-02 1.283697047496790838e-02 1.283697047496790838e-02 1.283697047496790838e-02 1.283697047496790838e-02 1.283697047496790838e-02 1.283697047496790838e-02 1.283697047496790838e-02 1.283697047496790838e-02 1.283697047496790838e-02 1.283697047496790838e-02 1.283697047496790838e-02 1.283697047496790838e-02 1.283697047496790838e-02 1.283697047496790838e-02 1.283697047496790838e-02 1.283697047496790838e-02 1.283697047496790838e-02 1.283697047496790838e-02 1.283697047496790838e-02 1.283697047496790838e-02 1.283697047496790838e-02 1.283697047496790838e-02 1.283697047496790838e-02 1.283697047496790838e-02 1.283697047496790838e-02 1.283697047496790838e-02 1.283697047496790838e-02 1.283697047496790838e-02 1.283697047496790838e-02 1.283697047496790838e-02 1.283697047496790838e-02 1.283697047496790838e-02 1.283697047496790838e-02 1.283697047496790838e-02 1.283697047496790838e-02 1.283697047496790838e-02 1.283697047496790838e-02 1.283697047496790838e-02 1.283697047496790838e-02 1.283697047496790838e-02 1.283697047496790838e-02 1.283697047496790838e-02 1.283697047496790838e-02 1.283697047496790838e-02 1.283697047496790838e-02 1.283697047496790838e-02 1.283697047496790838e-02 1.283697047496790838e-02 1.283697047496790838e-02 1.283697047496790838e-02 1.283697047496790838e-02 1.283697047496790838e-02 1.283697047496790838e-02 1.283697047496790838e-02 1.283697047496790838e-02 1.283697047496790838e-02 1.283697047496790838e-02 1.283697047496790838e-02 1.283697047496790838e-02 1.283697047496790838e-02 1.283697047496790838e-02 1.283697047496790838e-02 1.283697047496790838e-02 1.283697047496790838e-02 1.283697047496790838e-02 1.283697047496790838e-02 1.283697047496790838e-02 1.283697047496790838e-02 1.283697047496790838e-02 1.283697047496790838e-02 1.283697047496790838e-02 1.283697047496790838e-02 1.283697047496790838e-02 1.283697047496790838e-02 1.283697047496790838e-02 1.283697047496790838e-02 1.283697047496790838e-02 1.283697047496790838e-02 1.283697047496790838e-02 1.283697047496790838e-02 1.283697047496790838e-02 1.283697047496790838e-02 1.283697047496790838e-02 1.283697047496790838e-02 1.283697047496790838e-02 1.283697047496790838e-02 1.283697047496790838e-02 1.283697047496790838e-02 1.283697047496790838e-02 1.283697047496790838e-02 1.283697047496790838e-02 1.283697047496790838e-02 1.283697047496790838e-02 1.283697047496790838e-02 1.283697047496790838e-02 1.283697047496790838e-02 1.283697047496790838e-02 1.283697047496790838e-02 1.283697047496790838e-02 1.283697047496790838e-02 1.283697047496790838e-02 1.283697047496790838e-02 1.283697047496790838e-02 1.283697047496790838e-02 1.283697047496790838e-02 1.283697047496790838e-02 1.283697047496790838e-02 1.283697047496790838e-02 1.283697047496790838e-02 1.283697047496790838e-02 1.283697047496790838e-02 1.283697047496790838e-02 1.283697047496790838e-02 1.283697047496790838e-02 1.283697047496790838e-02 1.283697047496790838e-02 1.283697047496790838e-02 1.283697047496790838e-02 1.283697047496790838e-02 1.283697047496790838e-02 1.283697047496790838e-02 1.283697047496790838e-02 1.283697047496790838e-02 1.283697047496790838e-02 1.283697047496790838e-02 1.283697047496790838e-02 1.283697047496790838e-02 1.283697047496790838e-02 1.283697047496790838e-02 1.283697047496790838e-02 1.283697047496790838e-02 1.283697047496790838e-02 1.283697047496790838e-02 1.283697047496790838e-02 1.283697047496790838e-02 1.283697047496790838e-02 1.283697047496790838e-02 1.283697047496790838e-02 1.283697047496790838e-02 1.283697047496790838e-02 1.283697047496790838e-02 1.283697047496790838e-02 1.283697047496790838e-02 1.283697047496790838e-02 1.283697047496790838e-02 1.283697047496790838e-02 1.283697047496790838e-02 1.283697047496790838e-02 1.283697047496790838e-02 1.283697047496790838e-02 1.283697047496790838e-02 1.283697047496790838e-02 1.283697047496790838e-02 1.283697047496790838e-02 1.283697047496790838e-02 1.283697047496790838e-02 1.283697047496790838e-02 1.283697047496790838e-02 1.283697047496790838e-02 1.283697047496790838e-02 1.283697047496790838e-02 1.283697047496790838e-02 1.283697047496790838e-02 1.283697047496790838e-02 1.283697047496790838e-02 1.283697047496790838e-02 1.283697047496790838e-02 1.283697047496790838e-02 1.283697047496790838e-02 1.283697047496790838e-02 1.283697047496790838e-02 1.283697047496790838e-02 1.283697047496790838e-02 1.283697047496790838e-02 1.283697047496790838e-02 1.283697047496790838e-02 1.283697047496790838e-02 1.283697047496790838e-02 1.283697047496790838e-02 1.283697047496790838e-02 1.283697047496790838e-02 1.283697047496790838e-02 1.283697047496790838e-02 1.283697047496790838e-02 1.283697047496790838e-02 1.283697047496790838e-02 1.283697047496790838e-02 1.283697047496790838e-02 1.283697047496790838e-02 1.283697047496790838e-02 1.283697047496790838e-02 1.283697047496790838e-02 1.283697047496790838e-02 1.283697047496790838e-02 1.283697047496790838e-02 1.283697047496790838e-02 1.283697047496790838e-02 1.283697047496790838e-02 1.283697047496790838e-02 1.283697047496790838e-02 1.283697047496790838e-02 1.283697047496790838e-02 1.283697047496790838e-02 1.283697047496790838e-02 1.283697047496790838e-02 1.283697047496790838e-02 1.283697047496790838e-02 1.283697047496790838e-02 1.283697047496790838e-02 1.283697047496790838e-02 1.283697047496790838e-02 1.283697047496790838e-02 1.283697047496790838e-02 1.283697047496790838e-02 1.283697047496790838e-02 1.283697047496790838e-02 1.283697047496790838e-02 1.283697047496790838e-02 1.283697047496790838e-02 1.283697047496790838e-02 1.283697047496790838e-02 1.283697047496790838e-02 1.283697047496790838e-02 1.283697047496790838e-02 1.283697047496790838e-02 1.283697047496790838e-02 1.283697047496790838e-02 1.283697047496790838e-02 1.283697047496790838e-02 1.283697047496790838e-02 1.283697047496790838e-02 1.283697047496790838e-02 1.283697047496790838e-02 1.283697047496790838e-02 1.283697047496790838e-02 1.283697047496790838e-02 1.283697047496790838e-02 1.283697047496790838e-02 1.283697047496790838e-02 1.283697047496790838e-02 1.283697047496790838e-02 1.283697047496790838e-02 1.283697047496790838e-02 1.283697047496790838e-02 1.283697047496790838e-02 1.283697047496790838e-02 1.283697047496790838e-02 1.283697047496790838e-02 1.283697047496790838e-02 1.283697047496790838e-02 1.283697047496790838e-02 1.283697047496790838e-02 1.283697047496790838e-02 1.283697047496790838e-02 1.283697047496790838e-02 1.283697047496790838e-02 1.283697047496790838e-02 1.283697047496790838e-02 1.283697047496790838e-02 1.283697047496790838e-02 1.283697047496790838e-02 1.283697047496790838e-02 1.283697047496790838e-02 1.283697047496790838e-02 1.283697047496790838e-02 1.283697047496790838e-02 1.283697047496790838e-02 1.283697047496790838e-02 1.283697047496790838e-02 1.283697047496790838e-02 1.283697047496790838e-02 1.283697047496790838e-02 1.283697047496790838e-02 1.283697047496790838e-02 1.283697047496790838e-02 1.283697047496790838e-02 1.283697047496790838e-02 1.283697047496790838e-02 1.283697047496790838e-02 1.283697047496790838e-02 1.283697047496790838e-02 1.283697047496790838e-02 1.283697047496790838e-02 1.283697047496790838e-02 1.283697047496790838e-02 1.283697047496790838e-02 1.283697047496790838e-02 1.283697047496790838e-02 1.283697047496790838e-02 1.283697047496790838e-02 1.283697047496790838e-02 1.283697047496790838e-02 1.283697047496790838e-02 1.283697047496790838e-02 1.283697047496790838e-02 1.283697047496790838e-02 1.283697047496790838e-02 1.283697047496790838e-02 1.283697047496790838e-02 1.283697047496790838e-02 1.283697047496790838e-02 1.283697047496790838e-02 1.283697047496790838e-02 1.283697047496790838e-02 1.283697047496790838e-02 1.283697047496790838e-02 1.283697047496790838e-02 1.283697047496790838e-02 1.283697047496790838e-02 1.283697047496790838e-02 1.283697047496790838e-02 1.283697047496790838e-02 1.283697047496790838e-02 1.283697047496790838e-02 1.283697047496790838e-02 1.283697047496790838e-02 1.283697047496790838e-02 1.283697047496790838e-02 1.283697047496790838e-02 1.283697047496790838e-02 1.283697047496790838e-02 1.283697047496790838e-02 1.283697047496790838e-02 1.283697047496790838e-02 1.283697047496790838e-02 1.283697047496790838e-02 1.283697047496790838e-02 1.283697047496790838e-02 1.283697047496790838e-02 1.283697047496790838e-02 1.283697047496790838e-02 1.283697047496790838e-02 1.283697047496790838e-02 1.283697047496790838e-02 1.283697047496790838e-02 1.283697047496790838e-02 1.283697047496790838e-02 1.283697047496790838e-02 1.283697047496790838e-02 1.283697047496790838e-02 1.283697047496790838e-02 1.283697047496790838e-02 1.283697047496790838e-02 1.283697047496790838e-02 1.283697047496790838e-02 1.283697047496790838e-02 1.283697047496790838e-02 1.283697047496790838e-02 1.283697047496790838e-02 1.283697047496790838e-02
4.508694695865731461e+00 -1.909725629043096840e+00 -1.935325915707443167e-01 1.344263210695534339e+00 1.020359399241268283e+00 2.196971367114736451e-01 -5.412593544576509430e-01 1.331819072648494195e+00 1.821603274510034121e-01 -1.099732715374293734e+00 -9.047975682525297714e-01 4.876518465706827787e-01 4.127792941802992804e-02 -6.028614197664021457e-02 -1.738856488734078498e-01 -8.612293515272646527e-01 -1.707984871303434571e-01 -6.247635663958612806e-01 -3.146793552399014815e-01 -2.225200213696661433e-01 -3.640649445607573864e-01 -1.043271983247010537e+00 4.818757457459628135e-01 1.681175301615026818e+00 4.357202196742755440e-01 1.483743080469827502e+00 -1.238387045539516729e+00 -9.960265294572843153e-01 2.360853305893246545e-01 4.083850270837666940e+00 -1.659453239448004824e+00 -1.058989602954382603e+00 -3.146936102923484357e-01 -1.607978092577964091e+00 -6.357795168335997893e-01 1.205527930441135709e+00 3.287417124661479728e-01 -9.365703617855797303e-02 4.619430090327011351e-01 -1.023871633240135637e+00 6.230537556334549976e-01 2.451036393141534209e+00 1.407630840228002889e+00 -1.166476518869575679e-01 -2.992548201831685684e-01 -2.003234389238678581e+00 -1.179511030548439532e+00 9.894125315382340524e-01 2.728198258221490313e-01 -1.461597743974110797e+00 1.250210564664996360e-01 9.309067464093073729e-02 7.803748121630353918e-01 2.072427124047286018e+00 4.041886959518850020e-01 -1.192172571930837144e+00 1.003521557807020015e+00 -3.216864011833892589e-01 -1.610902032349233459e-01 -9.985041662195137668e-01 -3.204928687050587199e-01 5.384456615515177402e-01 -1.494700379161641113e+00 3.811813946963079625e-01 1.895234049943156363e-01 3.025182259150061004e-01 -1.997527625245542476e-02 -9.985393985961635854e-01 -9.614291967188269838e-01 1.048155623429788186e+00 3.026399905452120676e-01 -3.755612715122073064e-01 1.574028298716633412e+00 -9.764824848808097979e-01 -5.578463806336880770e-02 4.026161566807025249e-03 5.052673389205735166e-01 -7.138672329827067120e-02 2.672997339145559703e-01 -1.434242400302643272e+00 -7.231088460501704507e-01 5.932869189958871470e-01 -6.622105621375911078e-01 1.196416935800414416e+00 -4.346706452510652463e-01 -2.838281876372780732e-01 6.024925393966400894e-02 6.499415767947601674e-01 -2.059605309769347414e+00 2.717422441479074857e-01 1.230927387134872930e+00 5.942470999417295285e-01 2.750771488907216344e+00 3.294487493364654518e-01 1.076525803042107876e+00 3.634157714262033212e-02 4.817987263712181778e-01 -7.969862914048002345e-02 -1.391121472414812432e+00 2.580515124533421800e-01 1.636704506644241608e+00 -1.478877621854996605e+00 -4.414156021168446076e-01 -1.645886066328983599e+00 4.086861304738966805e-01 -9.427334480614886214e-01 5.976537423308778130e-02 1.715475583776515656e-01 -2.436948620575819791e-02 2.616320372428670438e-01 -1.330416280221551562e+00 -2.444631510685856934e+00 2.405339585986969175e-01 -1.669058558986274698e-01 1.623998569840668926e-01 1.409861334757259999e-01 4.865642344991945034e-01 3.090312466905743571e-01 2.370669886046474328e+00 -7.484060571504008719e-01 2.352941443607037275e+00 1.218311292559547843e+00 1.617591196899375028e-01 -1.362729877712413940e+00 2.291614477844492737e-01 -9.898605144898887653e-01 1.671650597949522421e+00 1.608159193941712140e+00 2.417976466452784745e-01 3.457783813717038579e-01 -1.192972030840070141e-01 2.430405989023595836e+00 -2.005878417033895578e-01 -1.480156071608531576e-01 7.787801738597787127e-01 -3.929624852990147299e-01 2.108318196278048673e-01 6.228966718186063067e-02 4.559532848822746981e-02 1.161120941141783325e-01 1.948544957751628726e+00 1.954524036839419665e+00 1.018377974560697244e-02 -7.678748112411000193e-01 -3.662991545473798238e-01 4.102182582432194469e-01 -1.123401290948251141e+00 -2.264764468883730120e-01 -1.265768486253276315e+00 9.632755871400290326e-01 5.219421099106178602e-02 1.435439020094410711e+00 -2.450495218702871458e+00 4.464161425960813667e-02 -1.406479039851564306e+00 -1.168014850595357201e-01 -1.849097225629796337e-01 1.407989395321618042e+00 2.970972679013214046e-01 1.320548512014829701e-01 -3.166261355548312395e-02 -9.970563997172441351e-01 6.174836603947462255e-01 -8.853259299601143884e-01 3.411745586350929393e-01 1.154842963221254237e+00 2.767689007015758373e-01 -9.427791932527018748e-01 -1.712607781121522343e-02 4.498751991941380424e-01 -9.365580381276275013e-01 -1.084204413592580352e+00 1.266415106518666567e-01 1.103356735630838248e-01 -1.165283909324818401e+00 -1.179584002082868288e+00 -6.718290931616581474e-02 1.101531825644465723e+00 -9.828226533312701685e-01 -2.151164629840181253e-01 -4.357306922880778699e-01 -1.746747578124651090e-01 7.089967298614698876e-01 -7.718795622568497272e-01 8.165754471514257151e-01 -2.761763454584545419e-01 -4.545094317405702355e-01 -6.728586531664100256e-01 -3.142918895926481992e-01 -1.021288469111345742e+00 1.189139036522146142e+00 1.477005395302589896e+00 1.383263585949787711e-01 -6.479163320991160324e-01 -1.016260592378391170e+00 -3.969027275404659161e+00 -2.785836295157371190e-01 3.912061976846285649e+00 1.615442713281505793e-01 -4.929911377892579605e-01 3.225340908844237520e-01 4.696810665190151113e+00 2.475356718829653802e-01 9.617972121598328261e-01 -8.299610004186946943e-02 -2.506273269393092029e+00 -3.712688000003520200e-03 9.324672512407463643e-01 1.134532154946353177e+00 6.057459386738830998e-02 -9.213191058725490601e-01 -3.824253783770466264e-02 1.094105421451255500e-01 -3.182578506125424700e-01 -7.718453855762149596e-01 9.302664992321163506e-01 -1.503833027672027145e-01 1.569173589733618313e+00 -1.099749229256037575e+00 3.007685620941466520e-01 -9.212721258208041997e-01 -1.015168079888387975e+00 4.632157014863992617e-02 7.588821287065750099e-02 -8.512629824096333842e-01 3.296064287516799474e-01 -3.697198045461492777e-01 1.474637226414605262e+00 1.489022581555647706e+00 1.427475541007193316e+00 2.466825389400858271e+00 -3.330025654241103306e-02 -1.086472614066346321e+00 2.571154475623854685e-01 7.588516722506293277e-01 -7.094528476757128166e-01 4.647032846066390110e-01 -4.731175717418782956e-01 -1.282560417199795355e-01 -5.786124931069974719e-01 4.487130899874974821e-01 9.807261113552614429e-01 6.647554870199435806e-01 -1.168001810357836678e+00 -1.623579090353103327e+00 2.718697412905199395e-01 2.465917329705963557e+00 -1.499539954035333134e+00 -2.141066259158730389e-01 1.848335776567631983e-01 -2.451618162258510647e-01 5.695424608586181492e-01 -1.334576902559436506e+00 1.703517158595725667e-02 8.184710836008715074e-01 -7.238467595038733382e-01 -6.511144753389470630e-01 1.640636096178144987e+00 -2.077937939585996485e+00 -3.417498971971479893e-01 2.266909049015115862e-01 -4.833823600447131885e-01 7.660068166450894056e-01 -9.340318870199785239e-01 5.020318293791271869e-02 2.770772729650768373e-01 -5.633645163719697146e-03 -9.606747284904647577e-01 3.078850042235444229e-01 4.395053998171846721e-01 1.298115372065864193e-01 -1.611303563307752817e+00 -1.716557933538684910e+00 -1.132061739587792326e+00 -7.756979158714726041e-02 1.304975904431994849e+00 2.073776707378621187e-01 -1.720721210797631073e-01 1.237326212541912218e+00 -5.729470474199565899e+00 7.626036526561134066e-01 -2.328634410671944488e-01 1.669443730912015950e-02 -2.045050955751971600e+00 -3.434997260574581546e-01 -5.044208540366919014e-01 -5.875091174188068477e-01 -5.640185629605536377e-01 6.846957822532899751e-01 7.296893209396576596e-02 -6.526701159265397845e-01 5.610795176767487819e-02 1.833275947961069186e+00 2.969380604642178900e-01 -4.522504582398365058e-01 7.498708041490780296e-01 3.783278979659696062e-01 -4.720446728141199366e-01 -4.569355851896375609e-01 -6.338986454230743917e-02 -3.726764066187783775e-01 -1.400190997330650333e+00 -2.357382090470256375e-01 5.594177279809591230e-01 1.423166881270452322e+00 -1.147385015327696101e+00 9.287123018583821610e-01 1.056093180242649865e+00 7.428704150979341669e-01 -8.930507842859215506e-01 4.842057566468580543e-01 -6.509562971202502712e-01 1.351023825917896659e-01 -4.198089796565964704e-01 8.143120863672548282e-01 -7.261123356176732990e-01 -8.753280735013334590e-01 1.447434721473181751e+00 1.480791233908197724e-01 9.591013504289860325e-01 -2.458031530240824547e-01 -8.640258881666331714e-01 -5.167480364656101832e-02 3.206155113781523069e-01 6.585638923534595235e-02 -3.220021728353503199e-01 -5.856891577035432395e-01 1.931147549910587069e-01 -1.812206355615759157e-01 6.931254423428542255e-01 1.503417333174379422e+00 4.152838092726749974e-01 1.050552170254686751e-01 2.370797334370742693e+00 3.690915747248895151e-01 3.394840652465533903e-01 -2.005188924061562517e-01 7.648903402679602115e-01 1.908905874226452859e+00 -4.910473376709457716e-01 5.933441912603009127e-01 1.227758001630542203e-02 -1.545872734145431471e-01 -4.423108461166168348e-02 1.652747325171738391e-01 6.906919766174424158e-02 -2.460803777828113048e-01 1.475507890443198966e-01 3.702631366952088277e-01 4.045861701541778599e-01 3.743564510155252822e-01 -9.654473499398070757e-01 3.154493559247911194e-01 -1.916420452036260158e-01 -3.296339384941494588e-01 -7.701019930221900678e-01 -2.396867368010893173e-01 -9.531426804973432976e-01 -6.143271544597109779e-01 7.800031822569577500e-01 -1.178233908600118562e+00 -1.148378811552037249e+00 -1.752010115287045700e-01 -3.013524458282449969e-01 -3.875321662650406118e-01 3.993354661106130465e-01 5.090028790332904451e-01 -3.653292055225440538e-01 6.685849723930671340e-01 2.043368289808523031e+00 -5.746548608819249671e-01 4.106816359604789635e-01 4.635007045695052064e-01 -5.939248726917708554e-01 2.029680837809385352e+00 1.348382238723267179e-01 3.272804039064909354e+00 6.697272372305489441e-01 -1.221002041672190286e+00 -4.897758466593901683e-01 -3.048460336304215090e-01 -3.748386695397941670e-01 -5.192416052623207712e-01 -4.043774833263436702e-02 -3.266771795705408765e-01 -3.988140813556110831e-01 3.647283848618843582e-01 2.728515479564245005e+00 -5.102264508575768964e-01 -1.187068218862650792e-01 -2.820567631350104909e-01 7.378308786437490774e-01 -4.313360583994517161e-01 -1.666176206969109286e+00 1.009401079209608421e+00 -1.798730125823193804e+00 -2.613147577135367383e-01 -6.520879198457922854e-01 -4.037748550442458173e-01 6.746098927396455835e-02 -4.265970913348799409e-01 -3.649647312393551779e+00 2.613022323078759257e+00 -3.939310165571175970e-01 1.335585017894437954e+00 -9.789477442755584180e-02 -6.454972165233604509e-01 -5.635506390572531804e-02 -2.458237185177305217e-01 -2.825469695411411131e-01 5.653953717914713684e-01 -1.439345671615833988e-01 -3.738453469745716684e-01 4.675543105002450545e-02 1.896692428479203885e-01 -8.354763230469940127e-02 -9.445046887408528602e-02 -6.358018881889733187e-01 -7.367124650880807479e-01 -3.499605783039949625e-01 2.867150200699638551e-01 3.017607041962401926e+00 -1.819049347127033034e+00 1.265974130323402003e+00 6.071362625132977753e-01 6.031564934581459120e-02 -5.448168861557959319e-01 -7.843831219943718791e-01 1.418765465560460237e+00 -2.672009830361540050e+00 7.332347525163002144e-01 -8.260977252404893001e-01 1.134279659926356265e+00 -2.447471443581141326e+00 -2.264685326509229490e+00 -5.227038539787607352e-01 -1.919008746545143584e-02 -2.932470975130269109e-01 4.886733065627739681e-01 -2.024188946513817977e-01 1.082932344238482392e+00 -8.656235125187003998e-01 -3.998497671414826815e-01 -3.591371887575757760e-01 -6.517168064369557312e-01 -2.929949914740609618e+00 -4.986350974660501145e-01 5.610266242849450968e-01 -1.126970642073224393e+00 1.366000966916719017e+00 1.670033562111207903e+00 -2.399468383329299570e-01 5.834097768350263169e-02 -5.882152124561228490e-01 1.657594902015436578e+00 2.686846758868992158e+00 3.743574565934735254e-01 2.728001065691746385e-01 -3.073581701595828886e+00 2.184304673057190505e-01 1.409999948603046505e-01 1.389791704921638713e-02 8.776530010821199657e-01 -1.439945635921379696e-01 1.528257981173594959e-01 1.653003019974875754e+00 -6.617249255629822358e-01 6.081479925018844213e-02 8.444425399934812893e-01 4.014726618469706132e-01 6.781270028742872880e-01 7.768216636900923677e-02 -1.219187509567410954e+00 3.235465659737949196e+00 8.109035606139600172e-02 1.001665792076938954e+00 1.047980966989056351e-01 2.427170654194685806e+00 2.072076049753925342e-01 3.992326425171870974e-01 -2.120303412011170785e+00 -8.586394725164716579e-01 1.427126471928225504e+00 2.975143003305101841e-01 2.832945230886264598e-01 9.749178129202374921e-01 1.582885784967125398e+00 6.831626840757046293e-02 4.198124741918177194e-01 6.803956532457011708e-02 2.143730586449631437e-01 4.317948598387560399e-01 1.217111038242041365e-01 9.741732846261766943e-01 -8.152497484446677989e-01 6.185770070971422507e-01 -9.151204434801154530e-01 -1.553240367894631380e+00 -1.819029054470879592e+00 1.650470241456146958e+00 -9.070565612951996259e-01 3.129536920251859033e+00 9.081816269815755627e-01 4.453133643124992241e-02 -1.396686506514105142e-01 -1.951423727067359337e+00 7.811857568414257713e-01 8.614150681934606979e-01 -1.649591470319251352e+00 -4.139909543676493775e-01 3.362179985170155039e-01 4.605029609017407544e-01 2.436593661927414223e-01 -3.163443888388192682e-02 4.134146820993400001e-02 6.158202601607850601e-01 6.263616383680803423e-02 1.205473820241743432e+00 3.813999180521300270e-01 2.972641699195427076e-02 -6.792691170045676019e-01 -1.082290491145382783e+00 5.688243102920693267e-02 2.232796635204928604e-01 -6.926647249931736638e-01 -5.297415034999041206e-01 1.350098100388147371e+00 5.398244409475104755e-01 3.662490408394691310e-01 -2.327139644745204461e-01 -8.174536102203777688e-01 1.436420409321649938e+00 -5.633989045089788927e-01 4.491858793028605246e-01 -5.218267870393697994e-01 -1.509077831820035520e+00 1.436514993071378865e-01 1.772103653057559292e-01 1.240822480718871690e+00 1.115509852832085480e+00 -5.963660247899618128e-01 -5.696016774681933459e-01 -9.299198577723791770e-01 -4.220779569364749295e-01 1.246216115532296165e+00 -3.954684605259568997e+00 4.090017845314223299e-01 1.738551286432082454e+00 8.229100167412728428e-02 -1.061980951521253047e+00 -5.776352339564668759e-01 -3.096793180445893690e-01 8.095367015982845027e-01 1.090830706159481300e+00 1.143322971741080399e-03 3.901568164719145804e-01 -3.647106690732420109e-01 5.747971489054483352e-02 1.249613687469991241e+00 1.987029600190640122e-01 1.474666604640213485e+00 -1.055147279959592455e+00 -1.826144970374827148e+00 -1.894294400830841552e-01 5.830428924135908630e-01 -3.469083593152411105e-01 5.560898254642576699e-01 -8.447985909754734957e-01 -1.210242693205652253e+00 2.732970749963811397e+00 3.852140821342027455e-02 4.281881581366910328e-01 5.058026693904990045e-01 1.199126467071491842e+00 -1.780226918952542148e-01 -6.691079706950182615e-01 1.505285417648439372e+00 2.074691984187975458e-01 1.664479867808638103e-01 -3.199733108617937027e-01 4.410869951425068214e-01 3.344332995928955277e-01 -1.568948284458052678e+00 4.976417526629927091e-01 3.980179719526917848e-01 2.713609797531352452e+00 -1.696601484778736735e+00 5.152867968535584237e-02 3.927828134622683542e+00 8.440370725341088676e-01 -2.934766367468084614e-01 -2.059224425568666472e+00 4.811095307015972322e-01 4.887234308092342494e-01 9.567560391716143364e-01 -2.114308591378407376e-01 -6.019028051512288063e-02 -1.352278526823898153e+00 6.172941138206253925e-02 -6.381148897891433247e-01 -1.550299082023882113e-01 1.838695517566673931e+00 1.496971079857282172e+00 2.465734889687190845e-01 3.413784621969989663e-01 -5.063494483092877141e-02 1.835019117313585746e-01 -2.114063165861983784e-01 -3.530748475786854024e-01 1.399394893250286209e+00 7.291786675181081145e-01 3.491201976637767768e-01 1.646555696971654603e+00 5.161645331075944698e-01 -3.071889125404728693e-01 -2.367588814538812703e-01 6.920550391928196321e-01 -2.806449013841234574e+00 6.634491381287919154e-01 1.445225055978179851e+00 4.469390471939513887e-01 1.718720488114983402e-01 1.492771573766103144e+00 -4.967529979089728431e-02 8.258276040974004140e-01 -1.533999010723431811e+00 -6.649368965894061345e-01 3.117349409296420876e-02 -4.602498224887714012e-02 -8.096285274157434264e-01 -1.021964194469884568e-01 9.424018582496151986e-01 4.571769974045084006e-01 -2.887544978262279738e-01 1.569744239850158207e-01 2.399562060967453669e-01 -8.989716515590993051e-01 1.705156672838653575e+00 -2.412626098944731901e+00 -1.246008409445933662e-01 1.903015310411237393e-01 -4.939559359969571406e-01 6.656360203259212849e-01 4.972256989210234734e-01 -3.073889836747157323e-01 2.846238040416114723e-01 3.130837873168179630e+00 4.015671314311592410e-01 -9.095165082816172308e-01 7.549497311488868601e-01 -4.338137385691626657e-01 -6.321647245446110341e-01 1.436664231092382449e-01 1.579924421226308606e-01 -6.582040407536970950e-01 -1.945902917798156551e-01 1.892790528411058271e-01 5.676493578459309575e-01 -6.287312195746481702e-01 -1.352521828915568713e+00 9.757388395308982942e-02 7.782084390201240431e-01 -7.689524816228329729e-02 7.908431648643120260e-02 -2.078518331470822489e-01 -3.932936327290517120e+00 1.097705100449553717e+00 -3.234686558915808585e-01 3.805792036114661880e-01 4.273152221008290619e-01 -1.526590107455073619e+00 -1.217871282085663198e+00 1.962666485404526373e+00 7.379518165790353024e-01 -5.254910867629991600e-01 -8.469393850458604156e-01 1.919775476879709841e-01 -1.512764072403066373e-01 1.829645222372763280e-01 -7.072755884269995574e-01 5.758568435366288041e-01 2.051665741587728409e+00 1.227586998589379613e-01 5.803939860596639411e-02 3.587613270170459390e-01 2.003989741006023451e+00 -1.280606247132943132e+00 -2.537851079064463722e-01 6.719876442904422209e-01 -6.069789372457097265e-01 -6.306180956373541591e-01 3.390593367989929163e-01 1.747627527423129545e-01 6.221848391066063799e-01 1.110570496209386082e+00 3.692900886887617862e-01 -7.345249211307977033e-01 4.794488885428984659e-01 7.843666954844189521e-01 9.116459567824977128e-01 -5.067420306636847283e-01 1.872388886546997533e+00 2.368130308780815430e+00 -2.464932894517573470e+00 -5.260147144037935485e-01 5.277683356771332296e-02 7.135643743713638854e-01 4.048875173129701244e-01 1.499792317191297464e+00 -4.136854296426719646e-01 3.592988833279753824e-01 6.350646453962013327e-01 2.372299257145586093e+00 1.768798000290846550e-01 -1.074232852112253056e+00 1.316665625369174419e+00 5.440786226451281848e-01 4.851711418584141178e-03 8.771311079554057477e-02 1.301813694524496523e-01 -9.791906027745718444e-02 4.745182073597986605e-02 -5.625539986620455846e-01 1.219726176230473413e+00 -4.329594706159904383e-01 -2.330688259026951314e+00 2.911517324797835427e-01 -1.904135480949885384e+00 1.921865017998187763e-01 1.413814321402650231e-01 -9.580895537303314724e-02 -7.634705094003172432e-01 5.594469275153364229e-01 3.436234627821928012e-01 3.238694365106938311e-01 8.767496226662018222e-01 -2.076500459980686053e-01 -3.246694527488483417e-01 2.533794131354065726e-01 -5.374264376998448833e-01 -1.919175804289506404e+00 3.947190756167605064e-01 -2.033683443089116805e-02 -2.950834472534867858e-01 1.745076080655319217e-01 1.559192473754472397e-01 -9.915506001550605797e-01 2.862203480170965042e-01 -5.481311737975115284e-01 3.498743120419780084e+00 9.123961764034534128e-02 -3.282689016508116842e-01 6.318163183561310570e-01 -3.637929816960214779e-01 1.353311878959831516e+00 -7.327603186391873358e-01 3.145209721627514110e+00 -4.380799693235821191e-01 1.064729893813884054e+00 -3.630503810954047172e-01 -7.004760486832398714e-01 -1.949609858462270917e-01 1.703372579417645749e-01 1.542893763673970908e-01 -6.212844979720689720e-01 -5.147417390023220074e-01 2.874455515645962245e-01 1.322668064184224557e+00 2.693258784464678812e-01 4.601951481979996705e-01 -1.303781072412117381e-01 -1.493831504866892201e+00 -2.351370592079181643e-01 3.224148719329899548e-01 1.367646355229299449e+00 3.131796650541273097e-01 -1.030894764543260678e+00 1.230567058233085764e-01 1.142303088613233930e+00
-2.256148188828204226e+00 1.344606315922375339e+00 -1.031624700114228910e+00 -4.068177545750381041e-01 -3.352565075724762700e-01 -1.060280514990286083e-01 -2.758739745016461353e-01 -2.150689319051204418e+00 -2.361408141984260856e-01 -1.594217754017389188e+00 -2.718091528975504989e+00 2.226603822294565271e-01 5.769547445650580197e-01 -2.344589096506729531e-01 2.388946488183416317e-01 7.351838033775634496e-02 1.792090625825787376e-01 -1.094584887290557945e-01 -4.449945185193475428e-02 3.417083496421053357e-01 -1.022566903002338323e+00 -1.185410921021204489e+00 6.264095688194569744e-01 1.159769866756494627e+00 -4.416498317310762478e-01 4.269717156703750072e-01 -1.090885002897162837e+00 8.562165867331132940e-01 1.820495261392122976e-01 -3.202104399369587906e+00 -1.901707064237066813e+00 7.201802527335917636e-01 7.236988705523595966e-01 -1.173522228301613346e-01 2.245975774193534336e-01 1.005456683417925046e+00 9.369009590339323346e-01 -2.139002307792023494e+00 -1.728407273466430610e-02 -6.302057997375537512e-01 -3.000445681492839300e-01 1.109520359545522306e+00 -4.625687860922518824e-01 -1.918886446192499484e+00 1.359561346202092236e-01 5.401338046285454331e-01 1.762711918737928762e+00 3.499473779792429129e-01 -2.671360219562031735e-01 -1.499431536895349248e+00 -2.608250913088903666e-01 -1.671918438990320110e+00 -2.149631233876923841e-01 -4.193395067487669658e-01 -3.213182246335533065e+00 9.100717426995320880e-02 -6.869668300285317053e-02 -7.248533369416056971e-01 2.348272329519260015e+00 1.159777667284847269e-01 -8.680128087888722144e-01 -4.633817873140054222e-01 7.618286268674425710e-01 5.612004101163503567e-01 1.961096602055356353e-01 5.469634666979823479e-01 8.562816229405655344e-01 2.047355064639719835e-01 1.576646601478229881e-01 1.642425447777001168e-01 5.567285227696705530e-01 6.287192635833481758e-01 2.161337914066306654e-01 -3.767713444988013194e+00 8.638933508381493320e-01 1.284676795739044808e+00 1.572796456371562179e+00 9.587826394045888545e-01 1.022372931168760296e-01 3.323305301496167763e-01 -1.422476249989692576e+00 -1.339871491180163465e-01 -8.968184138198966870e-01 -1.877546398993771515e+00 5.176037668687019089e-01 6.241176457390229526e-01 -3.963758787736129663e-01 1.358891547650652232e+00 -3.940653051895278702e-01 -9.797066042153281806e-01 -9.285807210393107747e-01 2.346343383367009316e+00 1.422113593200171167e+00 -2.028938301872612815e+00 -5.706829291436213980e-01 -9.013634805041818854e-02 -2.641278414638196237e-01 8.957049686125126975e-01 1.683592526766048425e-01 5.752216648214466543e-01 -7.485707803375980518e-01 1.731388977525901263e+00 8.874506882918553607e-02 -8.646963083497816172e-01 2.199963588577107942e-01 -4.690786030719091282e-01 4.524586477250384098e-01 8.042426313080293099e-01 -6.679130291770896122e-02 1.813305831436603510e-01 -8.702917879742838592e-01 1.217102939182997945e+00 -3.100569880704921455e-01 -6.608243138206633116e-01 2.281794494796139383e-01 -1.318790955315416680e+00 1.208040537869607967e+00 1.335326627685220202e-01 2.457336527853095642e+00 2.534344820867234227e-01 1.417259983174267379e+00 -3.142616882733461292e+00 1.073904155372134850e-01 2.705699781690347749e-01 -2.341619635749621064e-01 6.995165291291245424e-01 -1.607705789960194531e+00 -1.556460865464168952e+00 -7.018484206952926296e-01 -4.291395838248707358e-03 4.924551852671092689e-02 9.106707488322182686e-02 -3.383852817620564002e-01 -3.003760970569331334e-01 -1.736887331946798119e-01 4.049083324529602068e-01 -1.313558178747552541e-01 -3.734004512944387177e-01 -7.991965926974167744e-03 -5.601206182096838404e-01 1.441259901810180599e+00 -6.162162256034777255e-03 3.861069101775928547e-01 -2.275714030252144582e+00 -6.422962627332291508e-01 9.936763068650349418e-01 -8.841434974639303390e-02 -3.239192359307601077e-01 3.899638198786099519e-01 -4.520246871999871185e-01 -7.507479298753764185e-01 -1.410284593288970711e-01 1.219882053416206480e+00 8.761687640577152658e-01 9.294469663695033024e-01 5.242065044160766352e-01 -3.444313037361115826e-01 -4.217055128160580868e-02 1.541129026751859310e-01 1.880324113098059968e-02 1.539205498847782266e-02 -4.844465279161424554e-01 1.014986334874097840e-01 -6.237011741352634919e-01 2.384413009099088376e-01 6.320869643680949723e-01 -7.724792259136518124e-01 6.091194342037982157e-01 -2.491013427897150467e-01 -1.795674997901507974e-01 4.279362532097785166e-01 1.032742636663742442e+00 3.741366269578332848e-01 -7.434274118570487477e-01 -8.151116288345730543e-02 2.444426497906238005e+00 -1.093200707749695244e-01 1.475939394883631905e-01 -6.441479600695227958e-01 -6.248885044027944202e-01 -2.737044942699909389e-01 2.678033215401135703e+00 2.529769003865733890e-01 -4.226017349064212225e-01 3.130952545049144331e-01 7.765525303581184424e-01 -6.811616416567334298e-01 1.136651186200068997e+00 6.227060520425828916e-01 5.220645374197161459e-01 -1.824173862702290205e-01 7.154006774286569836e-01 2.761959217528452484e-02 -3.141435643533067590e-01 -8.789476665958962515e-03 1.302060465342218087e+00 -4.945440829858261944e-01 4.517190970427682473e+00 3.057733490102793050e-01 -1.061735388676265268e+00 -4.182825237918207095e-02 2.778131720591227261e+00 -1.045038418352347342e+00 -6.061577521923345868e-01 5.055140788785705830e-01 2.001945559596246316e+00 3.976855551761695473e-01 -1.400535262500124389e+00 6.117245588785428234e-01 -2.720881657461421410e-01 8.988561040780305156e-01 -1.114683402106856569e+00 -6.345423977287766026e-02 8.425761145202367297e-01 1.199717813946651557e+00 -2.854270044959378305e-01 8.102515050113101580e-01 -7.631246398124058583e-01 1.321735066519739377e+00 -3.392748084674184206e-01 -8.620238634068102535e-01 3.053672126373615514e-01 -7.728265003485819129e-01 -5.962487679929207030e-01 2.245853817597349422e-01 -5.647016920636512838e-01 -3.222990448347963222e-01 9.975649822251149157e-01 6.009739097192712265e-01 9.424136064712959060e-01 -4.510938517526841274e-01 -7.587302457092611752e-01 1.177198509382629377e+00 3.080766947231775577e-01 9.168570397427189267e-01 -1.242576192214364772e+00 -4.647647672278661796e-02 -3.720723641355219158e-01 4.943736653874927223e-01 1.545155870178121504e-01 -5.727948821001009605e-02 2.885735280050557017e-01 1.872255983215166675e-01 -2.871374150345798348e+00 9.830471320566719351e-01 -4.115837155282470738e-01 -5.611198011453735202e-01 -6.793711675445681664e-01 -1.514365837589657371e+00 8.085431095399443491e-01 -4.033862401612987592e-01 -7.039284600015258686e-01 -4.549595504540266955e-01 6.982277780101537878e-01 4.375175822246263335e-01 1.351954562579664065e+00 3.291486961709053638e-01 7.227557722377712102e-01 -5.183357311741528667e-02 6.307683920051686544e-01 -6.652328024099086745e-01 5.278515086993497141e-01 8.563816101633472400e-01 1.807072092533024976e-01 -7.367164002088100183e-02 -3.694494641418148428e-01 -5.726727293553098841e-01 5.513047945992508581e-01 -1.230740521093483947e-01 -7.891080849360735394e-01 -2.097076592125495798e-01 2.893730300314809045e-01 1.806226136505743485e+00 -9.317171858630323156e-01 5.064768167720046232e-01 7.233412811816262167e-01 4.704980341771937413e-02 -1.928885917163543628e-01 -1.523120474148977443e+00 8.607121074207456646e-01 2.060641514064142310e+00 -1.942402413965771055e-02 4.371327465538612372e-03 1.644917913034979362e+00 -8.788159180139289983e-01 1.354126689873341727e+00 1.089602496544174626e+00 -2.677570022312742548e+00 7.815244109441763509e-01 1.983180240554571760e+00 -5.421950612870671815e-01 1.123521216315225502e+00 -3.009728604783498129e-01 2.442844032737381266e+00 1.086283097322433777e+00 -2.266922335954412726e-01 2.782897308891094657e-01 -7.995962136529860542e-01 -6.974780326952697562e-01 5.964059062424588442e-02 2.054536793152645036e+00 -8.904661532715188454e-02 -4.599310366072362211e-01 2.844872347970420767e-01 -3.199328354607955394e-02 8.324246318581826065e-01 -1.167115052981970019e-01 -1.807502636436416621e-01 -3.125792592328522912e-01 -2.749913324810748239e-01 -4.409914274618003671e-01 -2.398480895714700356e+00 1.581650696431414982e+00 -8.780723553908509338e-01 1.064427735277261755e+00 -2.269785626319991145e-01 1.610245906862171061e+00 2.199352051017001153e-01 -8.358812464561161948e-02 1.195334924242808849e+00 -1.524898116880683219e+00 7.342446116631363706e-01 1.762295820397616897e-01 -2.830071610584348751e-01 -3.272484475376565283e-01 3.140281096911084813e+00 2.698653850438777480e-01 -4.744760887550912853e-01 -1.498840749440802922e-01 5.967587316372757050e-02 -2.823155206884420121e-01 5.160111643110841806e-01 2.836949027621880504e+00 -6.144733278719423097e-01 4.960009990961606330e-01 -3.885878122439256205e-02 -1.724547494812908033e-01 3.255937270649820747e-01 -1.113909712425594362e-01 2.657247162016700415e-01 -1.871841155078554753e+00 -2.066465711507147862e+00 -2.409698643841221011e-02 4.169955053737489648e-01 -4.260879616570155681e-01 -6.755887338277709597e-01 4.476194287890237766e-01 8.501133321983479485e-01 -3.294964468483094766e-01 -4.577928095995473790e-01 -1.976511180603624240e-01 -1.466349373207238571e+00 -5.616412808512651900e-01 2.352736024366924861e-01 4.352727518357420999e-01 -5.870540650029709706e-01 7.746957726049228388e-01 9.339985075937379255e-01 -2.669385331391214145e-01 1.684267675429754085e+00 -4.756854382089917843e-01 2.199515072047889763e+00 2.725657941122929806e-01 2.144955310380099456e-01 -4.391400616827828007e-01 9.121008583569463202e-01 -2.728871772888043501e-01 -6.322352792592013104e-01 1.699167752757208660e+00 1.512653468754131980e+00 4.842567067937550984e-01 1.147920617142927258e+00 -3.696948097980526926e-01 -4.773688725131011723e-02 2.073571512784754489e+00 6.117875532338375999e-01 -1.429490154778789046e+00 1.911493636081150527e+00 5.600982592691092776e-01 1.111754665921176555e+00 6.458372211520102546e-01 1.289472532639956426e-01 -6.006788422114581749e-01 5.357780344034296371e-01 -5.305127316644081548e-01 4.560859533600827853e-01 2.797799403923098560e-01 -2.224991788372581575e-02 -4.213800904413064208e-01 -7.238007669667718691e-01 -5.707073233611547058e-01 1.691269007212682585e+00 5.971117099168061770e-01 -6.948545662133598366e-01 -3.256670653664863746e-01 3.270300232655812822e-01 -7.403313644494023960e-01 3.740760629078470623e-01 3.688761534088499938e-02 -1.089083171738983308e-01 5.933578177540000942e-01 -1.424003980636259881e+00 -2.211218506150448793e+00 -2.982497930522088336e-01 -4.803871856967406595e-01 -8.958251654577910339e-02 -6.673357113508766592e-01 4.044880204260615231e-01 1.872781475145414376e+00 -1.266824409180613009e-01 3.871313199384751047e-01 -6.961654599732192139e-01 1.445830203173226747e-01 -1.883188390860448813e-01 -8.503402394090597838e-01 -2.425435989577566856e-02 2.237405538020032503e-01 3.246417069791911025e+00 -1.480370812237250533e+00 3.252979459665786277e-01 1.052330078692970267e-01 -1.718809327681688481e+00 4.875804859493960697e-01 1.156131542296252812e+00 2.652859755980438994e-01 2.822850855085141941e-02 4.514487201181999199e-01 2.443703875159917438e-01 1.964194990475942593e+00 2.781365389231870155e-01 1.276146832578055834e+00 2.427803281740851471e+00 1.060612951991266595e+00 -1.064228797746070709e+00 7.091062598974338105e-01 -5.409721116733402502e-01 -2.582999732485088407e-01 -1.097829410812050099e-01 3.558904612380133226e-01 7.178499181960626974e-01 1.077809764564928940e+00 1.066377889280335944e+00 2.266677429982186798e-01 -5.879864933807114058e-01 1.310112023216553068e-01 -1.167859510624366770e+00 5.189221369210916812e-02 4.844920514278504980e-02 7.766480634057424393e-01 6.111470620999384096e-01 1.030194945150334718e+00 -1.963740908947753550e+00 -1.667646214643673797e-01 1.054604041593550923e+00 1.909682674763611532e+00 3.146667915568131524e-01 2.822163732040092188e-01 3.153828708248556989e+00 -1.249833824553404860e+00 -2.204154884594483610e-02 -1.118859273637775154e+00 -3.494641346676954918e-01 -1.439263444207921350e-01 5.126492739847691160e-01 -1.486901557280385922e-01 8.872117911119873357e-01 9.346586151767177775e-02 -2.503888139599851348e-01 -4.443173713486026633e-01 3.831130298388383815e-01 1.942690036785877039e+00 4.662270167506409879e-01 4.612740691046874897e-01 2.186567131475596337e+00 -1.873173390756791568e-01 1.352132644497923586e+00 4.206481314480516320e-01 -3.053703435291011403e-01 -3.105119569844352889e-02 7.396826477443301240e-01 1.463651296661156564e+00 1.100953225328290541e-01 1.007970551453939212e+00 -3.351003324315694754e-02 1.420803605014562265e-01 -2.518638964726355733e-01 3.818780998070459454e+00 -3.110405420503946416e+00 -7.581072327732406579e-01 -2.794761797972517559e-01 2.858681077880634303e-02 3.378165329933310174e-02 -4.515632212419896097e-01 -3.650868141946702616e-01 8.287720847934854085e-02 4.313159306253507297e-01 2.455503167622898053e-01 1.165767578097086421e+00 -1.194191055459223882e+00 1.129495402084158329e+00 -4.674073896685771445e-01 4.809862784479984610e-01 3.174247539795799766e-01 -1.157496317135427721e-01 -1.727317465448820477e-01 -1.700564614889655823e+00 5.796551234511852085e-02 -2.472028967143074407e+00 1.248970881787106579e+00 1.800658809591150877e+00 7.473568366853163836e-01 1.821947844212717382e-01 -5.979633038960501246e-01 -1.213597111477776880e-01 -1.931970022021535227e-01 -8.217789084785638298e-01 -1.657367096890254021e-01 9.504030601158411917e-01 1.378190001147261201e+00 6.887537127979672658e-01 5.786095112434466170e-01 -5.845152104843281959e-01 -7.167539733317244144e-01 -2.287393600363120394e-02 -3.898771262989781938e-01 1.113139830107205963e+00 1.876289064095512382e-01 4.712820223023571620e-01 -2.733186316702176377e+00 -3.914132732954141436e-01 1.027022596476432126e+00 9.026295905926269292e-01 -8.494108541514623356e-01 5.584342985436273610e-01 -3.947500922465785878e-01 1.793817139490410328e+00 -2.544433030117339636e-03 4.981792972749830017e-01 -1.170813895264493532e+00 2.200160603558086070e+00 -1.137403678988689437e+00 2.464608151614893661e+00 8.735956423698971740e-01 -2.967833864046834358e-01 -1.016258241746447410e+00 -3.670744868409543948e-01 1.284252462840572928e+00 -2.436332063957910243e+00 -8.045837893806107033e-01 6.916072079909297843e-01 1.945915053520962806e-02 -1.179078271335484596e+00 6.931329934954473526e-02 -9.697354420561640209e-01 -6.377597718555194639e-01 1.637128404511657143e-01 1.361346718467883465e-01 1.236318193979407953e-01 -1.011017904413577112e-01 1.094242520792846562e+00 2.031475377640239000e+00 4.776603011300215584e-01 -6.578466788393213527e-01 -1.643481300258625433e-01 4.711102791936778722e-01 -3.846856482736282778e-02 -5.257509222397649395e-02 -4.412089952367377887e-01 8.218938836461731068e-01 3.500838018045855926e-01 7.642955903693621211e-02 7.172951300295560273e-02 -2.214321499741702115e-01 1.088120889913102962e+00 5.103711877490573201e-01 1.412206473978429910e+00 3.861005610912145447e-01 -2.393586015203257311e+00 -4.543406874986434807e-01 9.305580735456921992e-01 -1.665072306145922165e-01 8.309255785154378016e-01 -1.346038275063538681e+00 4.128121224396127387e-01 3.141044049325177889e-01 2.438193194037684641e+00 -6.476121320166331463e-01 1.188408119184632683e-01 5.698513865422625280e-01 1.011422815353591353e+00 1.024008044619293178e+00 -1.222658765824853555e+00 -5.628836886280587093e-01 -2.389829918668627262e-01 -1.895248273524662519e+00 -2.384160396940127324e-01 7.776863144667770511e-01 -9.521529512679572926e-01 -6.320331637183334017e-01 6.702221999852663314e-01 4.930030540552360341e-01 6.557674770001481468e-01 9.753935518952189243e-01 -1.438275403818815468e+00 7.451873914959249445e-01 -8.136875202737956503e-01 1.344105491877561620e-01 -1.029061550896667038e-01 7.736791451355692906e-02 -1.288786548590927339e+00 -1.028442465373915898e-01 9.737875383253534467e-02 -1.756058211139534531e-01 9.162362499686867168e-02 -8.778951935632862968e-03 -1.003879098239338408e+00 1.374177967660020205e-01 -1.914455522591542502e+00 -7.541220176394593244e-02 -1.429494026331566525e+00 -7.825017180169762110e-01 2.560387110819710155e-01 6.217162710691664929e-01 6.242115875374357747e-01 -3.902516796946292610e-01 3.874490785247092894e+00 -3.700509024168767702e-01 -3.198348424756827235e-01 -8.659058918347546374e-01 1.299132440532301480e+00 -1.420868219300341906e-01 5.325030829654813225e-01 -2.104460705355694350e-01 6.489246579192322617e-01 -3.338510931132371296e-01 6.081613826579018722e-01 6.118882409431841696e-01 -7.457279772233236237e-01 8.755713498185627719e-01 1.249902354546431837e+00 -1.198749836739948504e+00 -2.718158531528920840e-01 -2.473201757884995466e-01 -8.683863709777763784e-01 -6.781833438518213297e-01 6.319614642113406955e-01 -2.508679543762545538e+00 -1.745335300876433016e-01 -2.234386451764833748e-01 2.065637428078913818e+00 1.015812346290130064e+00 -7.584036071525731559e-01 3.661289449444252719e-01 1.124985989710304002e-01 4.056865398144486878e-01 -4.224662016618053073e+00 -4.260226492177918156e-02 6.526792481934651224e-02 1.660511824051294605e+00 -1.464617809496140843e+00 6.315849986707599006e-01 6.472017813164953060e-01 -2.545402258428719477e-01 -1.657918002096049115e+00 5.746688195303363278e-01 -1.606993610880244894e-01 -8.820463678573283728e-01 -1.086360838245151950e+00 -5.880615306232599426e-01 1.092721164323759431e-01 -1.513519043734543823e+00 3.099223711665457071e+00 -8.378885958885914920e-02 5.332993506110346171e-01 -8.464362460373754393e-01 1.342959209736658499e+00 8.676761949300931809e-02 3.088553086686408600e-01 1.950790935650944302e+00 -2.702167012212165764e-02 -1.042873942238236928e+00 -1.174279811896187242e+00 3.598618004208861687e-01 -5.557566433521380356e-01 1.000787222020820544e-01 1.862040858021607237e+00 -1.293882284330419630e+00 1.145113390765911454e+00 1.887889098222274853e-01 3.118978851947269981e-01 3.694615975805271013e-01 -3.325087358682834310e-02 2.090281032940371819e+00 2.757275443523759528e-01 9.923129936701278186e-01 -3.475356348336497980e+00 -4.608751551203199570e-01 3.896633816023417629e-01 1.322617644966038730e+00 -8.206728216061904835e-01 -4.673301413333325049e-01 6.827527294974249372e-01 -2.845203754096205517e-01 -2.023181974829123320e+00 1.893160819688075591e-01 -3.461241415006956201e-02 -1.929110821588125635e+00 5.936421655170303069e-01 1.196063694866128957e+00 -2.986102117908391862e-01 1.094389985219783368e+00 5.212158903846367819e-01 -4.987497067188526034e-01 -7.684378481887392358e-03 -2.875441593602380941e+00 4.941393801686404519e-01 3.004375515001394548e-01 2.758874598442156434e-01 -8.676429607713754821e-01 8.989519825531103181e-02 -1.575863211888745563e-01 -8.469790865194797014e-02 2.348624852863631762e+00 -6.877600175017941631e-01 4.631936102233686486e-02 4.700607807709712427e-01 1.399322314606534556e+00 5.655833612771680174e-01 -2.641495503875767037e-01 5.539798743269965797e-01 -2.779097896250873334e-01 -3.366314900118858588e-01 -4.587997803880840969e-02 -2.584806401150483990e-01 -2.253862460080080787e-01 -3.598626904846099483e-01 -8.233359575094441052e-01 -1.223693272032111645e+00 -9.475159024961452570e-01 1.341160792369285204e+00 -2.722473197258054700e+00 9.633814473406081269e-02 -4.644203857039035099e-02 1.413287290809816188e+00 2.116198310221988621e-01 -8.440509807943525900e-01 -8.840692341210744376e-02 -1.012925807991503557e+00 2.091483532665027845e+00 8.514468888909285660e-01 3.150797320070332086e-01 -9.545655749720144412e-01 3.682896535713148012e+00 -2.717203403252506089e-01 -5.471938779626241978e-01 2.051685544216200530e+00 4.885046014142316317e-04 -2.931054582266731656e-01 -2.530324464862541145e-01 -1.264015037777967976e-01 9.720301068828599567e-01 9.570161137454491485e-02 4.479184447913552858e-01 6.615420002920871512e-02 -1.456966448611167197e-01 3.116485375746809172e-01 1.317620981991047602e+00 2.562413737193918739e-01 -8.190753631327711837e-01 1.759194246162963049e+00 -7.699496596245846147e-01 8.086296937386584782e-02 -6.304991658243572772e-01 -1.432902024324514134e-01 4.664626677297356583e-01 6.121547055739192666e-01 -1.020274138598158131e-01 -3.192293420812876148e-01 -1.656619988223218432e+00
1.378203360648417641e+00 2.319623536768157801e-01 4.311260582572732369e-01 1.334035322800293022e+00 -1.119287975399267387e-01 2.510581652081670528e-02 3.704299473406706400e-01 -8.374034796017794102e-01 -6.477715295213229973e-01 -1.139034654827493220e+00 -8.885470937903151567e-01 -6.595486213975036982e-01 -1.870620360699268292e-02 -6.511773360517547626e-01 4.444163243975897681e-01 -1.038968466235775878e+00 -6.524835533061078552e-01 -8.111770153586913557e-01 -1.088654785052321605e+00 -1.462526774407332919e+00 -6.469926734503369525e-01 8.042594074974055429e-01 4.502013933860161965e-02 -2.839373206666749194e+00 -1.152811431235684747e+00 -4.896488700337181532e-01 7.662920223672486930e-01 7.917549413424809779e-02 4.455925186600654536e-03 -1.017460025371169197e+00 -8.447784634675608029e-01 5.300640388572301909e-01 -6.178547278014334676e-01 -2.326590134445383762e-01 -6.224592638322410387e-01 1.758315470039536199e-01 -1.343073003273550725e+00 -1.312173065143652062e+00 1.000935553126372168e+00 -2.255074870735243042e-01 -1.538034721893988932e+00 -9.313287577396548444e-01 -6.659013520957618448e-02 -1.542283917523751491e+00 -9.576014776072462320e-01 6.548367378165078634e-01 -3.345382120964489836e+00 -1.426145006698224638e+00 -1.371972356670292936e-01 -7.874829608017339111e-02 -8.674756221451819238e-01 -6.082788152153905531e-02 1.520358985206451408e-01 -1.980836144952127231e+00 2.141842320823425627e+00 8.509130416792541896e-01 8.145804871625640375e-01 -5.453089816496176773e-02 1.950680932953559044e+00 -7.370312737699190597e-01 -2.409649643732292013e-01 -5.611645846278281446e-01 -2.956714970091496308e-01 -1.102130606778046473e-01 -3.298001440457551392e-01 -4.510533287521290013e-01 -5.418099001931266923e-01 -5.808845895132651593e-01 1.407952702208943863e-01 -2.495752661122894178e-01 -1.441632191273694019e-01 2.862251350888702639e-01 1.254956240579633064e+00 -1.753594213118839562e+00 -1.179542658030723334e-01 1.074570429696675433e-01 -1.522331436787694170e-01 -3.616374562450861418e-01 -5.502015839466321001e-01 1.517925025443214726e-01 -2.364349794184581466e-01 2.641421098909249032e-01 5.458407555206267192e-01 -1.055270952893254899e+00 4.961150164195624601e-01 -4.043850527936765915e-01 2.149615587576173825e-01 2.975655606322761826e-01 9.009549241982761636e-01 8.409690583458753199e-01 1.537559828293233455e-03 -3.800014009206051924e-01 -1.249019596647915842e+00 1.928937762519778443e-01 -5.270429757120419501e-01 3.540053175312770861e+00 -4.391711984249041523e-01 -3.151711430058833918e-01 -1.068350238918122086e-01 2.248923207225567711e-01 -1.249158908861876804e-01 3.195558799387494986e+00 6.171615625752652212e-02 4.674012977026709703e-01 4.331326477170740347e-02 3.212166264218348499e-01 5.167472597060968065e-01 7.177798450700839661e-01 -5.255290621409881568e-01 7.179330489279350802e-01 9.572908307722099996e-01 1.651785048377635956e+00 -2.034332701299622070e-01 1.515661278893919162e-01 -8.295019464265310782e-01 1.955837177728832477e-01 1.270308680080271535e-01 8.645433954700479373e-02 6.924094497834312190e-01 -7.857820785752823722e-01 2.966223239722259652e+00 -1.833573468583529431e+00 -3.814398322102543482e-01 -9.141633408386161397e-02 -6.709188193636353992e-01 -1.957023166887078780e+00 1.770640823964398036e+00 9.203130049616297104e-01 7.275632137222441675e-02 2.272644551632588550e-01 2.328393925717597845e-01 -5.261837616471302104e-01 -8.741798107516216554e-01 1.455900061556615055e-01 -3.232328398409108905e-01 -2.073437544548535794e+00 -5.604934421604158556e-01 4.398614466154909808e-01 -3.677632445520401805e-01 -4.564889436428031244e-01 3.816880429109535289e+00 1.992981183737448037e+00 2.174633674532210570e+00 -4.192866423170569790e-01 -1.595452590883451316e-01 -9.826553039238750120e-01 -1.651792471025019582e+00 3.681367153272390169e-01 -2.774380508444901916e-01 1.101837347500379760e+00 2.999399375857457750e-01 -1.225851078317322651e+00 2.042254702808159017e+00 -3.639690493560224782e-01 -4.699637467595184082e-01 2.417665558261870018e-01 2.599651439905673045e-01 -4.039212202520873762e-01 -2.832106284992432985e-02 2.729637642299271860e-01 1.025620898482798582e+00 2.091808511984779850e-01 6.561273047452942375e-01 -6.452887372786396680e-01 4.039360429407987119e-02 6.328998203590949778e-01 -6.367931893955948164e-01 2.183163957124226728e-01 -1.899872886497736002e-01 -2.203456095170677233e-03 -5.193402608385861985e-01 -3.318799404892862626e-01 2.487153263838597084e-01 -7.724100132966911225e-01 1.878603448592232050e+00 8.010294992692525151e-02 6.679536556307369422e-02 4.022318795079703468e-01 -7.522184158071503202e-01 -4.451255889570522317e-01 7.493913628318683573e-01 -3.235535866278551609e-01 -2.503326789901321625e+00 -3.052689247606544254e-01 1.242010244079946313e+00 -1.074106443494482921e+00 -7.527618674128935261e-01 -5.697396446507096535e+00 -6.627045150160341125e-01 1.057545375599451054e+00 -1.145772987747174732e+00 -4.715108528505097818e-02 2.260267353285061009e+00 4.858231529268924875e-02 -4.119912228242577967e+00 -2.536493959466942449e+00 -1.254559561281455016e-01 2.403098992489937635e-01 -6.118542277780812944e-01 4.154360724249727688e-01 -1.281826897636343832e+00 -1.726510598364819682e+00 1.155060743631398518e-01 1.000577295720492810e+00 -2.458475468044601236e-02 5.048782759039276424e-01 1.508870844990292115e+00 -2.539884535648514685e+00 5.083071119574091856e-01 1.563486581149430954e+00 -5.540903108523841381e-01 3.359527880069113515e+00 -1.895688055006885045e-02 -4.625891716326803182e-01 -2.470822141883627587e+00 3.711155294803492599e-01 -1.418627327514427883e-01 -2.339953565689430359e+00 2.298172517082427424e-01 -2.306289899036372826e-01 1.305716546422095448e-01 1.869938111447325135e-02 9.897157393132421932e-01 -6.749006442540955719e-01 -6.867866379797565868e-01 -3.086125134283108640e-01 -1.842323917186923232e-01 4.465246480778874427e-01 -2.304152968725698136e-01 9.213506833342874902e-01 -1.332452717354763783e+00 -8.492357583217921002e-01 1.045375149025290717e+00 1.020888253951132363e+00 -4.255822316166957275e-01 5.976537701012207132e-04 4.257362969038014366e-01 -9.598410099366103121e-02 1.604818841053220480e-01 -9.009172344870289839e-01 -9.168997216465117894e-01 -2.450181202347362641e-01 -5.363400775031174073e-01 1.356898975264883678e+00 -6.255353681060128457e-01 -2.077290074994956326e-01 1.231406854807797657e+00 2.433423615886194658e-01 8.817429218210234287e-01 -3.511019044905809294e-01 -3.934255914486011751e-01 -2.401574849115835908e-01 7.788257432261619373e-02 -3.061415862351820616e-01 -3.968110192535274083e-01 3.858990766336358735e-01 -4.273641329176301462e-01 1.727144137803019452e+00 1.704552705932523837e-01 -2.767678498119423569e-01 2.139194277176467152e-01 4.363723813768179971e-01 -4.933000130310717379e-01 -3.131495162894363804e-01 -6.516612750770602869e-01 -8.590721978519065827e-01 -5.302883792456336565e-01 2.878176657044938525e-01 2.609217166923949449e-01 1.501422865812170659e+00 -2.587049633870180387e-01 -4.181530140715203347e-02 2.044684015250440634e+00 -1.292150930870637593e+00 -1.133001210734119468e-01 8.147598571024031178e-02 -2.633567792735422297e-01 -2.898680267022090695e-01 -2.898398549468335639e-01 4.088216529029754298e+00 -7.435854556122289960e-01 -3.307197031210086235e-01 -1.454631529116202360e-01 3.156634718041646526e-01 -1.275140953986438230e+00 -1.478201260936404582e+00 -7.465221997261338449e-02 6.005967256630122542e-01 5.202016686997040784e-02 2.676142123186425748e-01 4.871047201597578785e-02 -3.939036946016153951e-01 -1.208699349872660811e+00 -1.569035922744748124e+00 -4.011369652469838343e-01 1.965160475803549300e-01 8.636116778965683416e-01 2.418565403944453185e-01 -3.004776147503130934e-01 -9.641086174025722544e-01 -4.228518669089271764e-01 2.532043677695870465e-01 4.452197041543027867e-01 -2.028022685194660335e-01 -1.473839534935785789e+00 -1.656558702047383980e+00 4.458606111624346946e-01 7.670359298917960311e-01 -8.206144070540393187e-01 1.026947117885776528e+00 -1.904738627002411921e-01 2.943324756598673653e-01 1.046433662191420533e+00 -3.626839548410071279e-02 -4.200519439618333184e-02 -1.947244902398850730e+00 4.281082162698935933e-01 1.943244426440903783e-01 1.080336580706285243e+00 3.058681533127883823e-01 5.493722507628894247e-01 2.880833516169666320e-01 5.158150703968733541e-01 6.211318231105387305e-02 -7.021869334424595266e-01 4.006147631157931932e-01 -1.455282458875676310e+00 -7.088115746102303660e-01 3.323494520302682775e-01 -8.434382637264709048e-02 1.545587160155275752e+00 9.728735123674047136e-01 2.309445602566014277e-01 3.114006666247168820e+00 7.870661444668927698e-03 -3.704373927781837161e-01 1.142858612108123284e-02 9.842635943258828402e-01 -1.184524226291938209e+00 6.342055642953461359e-01 8.437198596534585260e-01 6.713892334620466529e-02 1.684280837473181580e-01 -8.369106481165256017e-01 -2.883981963391125669e-01 -7.462464529940956437e-01 -2.964916787720280333e-01 -1.244319793483917025e-01 8.635048946338055864e-02 -4.951594038586631941e-01 7.963583937412601621e-01 8.118016491871944407e-01 1.340453342315510166e-01 -6.320507182578445626e-02 1.413965664046802628e-01 4.927402069678569196e-01 -2.237734498379172210e-01 3.330246555496549021e+00 1.968199203170686529e+00 -1.305444372182517909e-01 -5.363967444740209700e-01 8.638759884178227599e-01 5.029274947492829995e-01 -5.800772788796669799e-01 7.127154193212619226e-01 1.130787995514261013e+00 -1.659994400490943586e-02 -1.039823355227771640e-01 -3.944094189766172986e-01 7.264448728735687366e-01 -6.634007577269330769e-01 -6.835207624327227505e-01 8.540276451732592422e-02 -4.083285713727156652e-01 -3.648412026889780724e-01 7.721342630832030984e-01 -1.185203002046365084e+00 2.981656736689951792e+00 -1.091206938469228283e-01 -8.013158611046605762e-01 -8.166729107453973846e-01 -6.621012511066137751e-01 3.481464003463802248e-02 1.618871262906375064e-01 1.059139929634095534e+00 4.314750142044858072e-01 -4.439722325628506772e-01 -1.006629754761408646e-01 -5.663078578389377782e-01 5.692705671285310798e-01 -3.884490333364450376e-01 9.957670279883255038e-01 -1.670539276883649948e-01 -7.119653159289370814e-01 5.328489551692621173e-01 -3.145023975919937875e+00 -1.097890590320160564e+00 -7.877768736450909692e-01 5.826993179190624872e-01 -5.821742237268345832e-01 -1.074300791255590859e+00 1.719400136940729462e+00 -2.219398191599903369e-01 -3.416158965610630038e-01 1.812746315887752369e+00 -3.561483647875189340e-01 -9.828914414513506559e-01 3.339807972148733928e-01 1.138684909758329367e+00 -2.422118563850357287e-01 1.969463014381857280e-02 -9.378975295821349034e-01 -1.500767268885846883e+00 -8.112645906917800298e-01 -6.821243639560841121e-01 -4.643226918924464597e-01 2.329333849623786701e-01 -9.372998504717836576e-01 2.597203594814954108e-01 -1.776472358492176828e-01 -4.865698364954165051e-02 1.533639061227390687e+00 -3.422132364566036422e+00 -8.988586107701474273e-03 -7.119777274598976247e-03 -7.305431200424477023e-01 -3.797527792936327140e-01 -1.401925529322886277e+00 -5.120092795621807857e-01 -6.549455025152732812e-01 1.693891113074305510e+00 1.435064070023323923e+00 -1.676482135877391810e-01 9.668713067441769837e-03 6.176808787736670636e-01 -1.242944964275898956e+00 3.548001263800725780e-01 -2.815797888940648197e-01 -5.298630274613621433e-02 2.978525582760744306e-01 -5.781637126346531388e-04 -4.294706724205934023e+00 6.124097007421416272e-01 -1.793666202095664186e+00 -4.422687744639236529e-01 4.232558662462526100e-01 2.047658705084743624e-01 -1.359115878338529038e-01 -8.652955425059973005e-02 -1.426765943275474791e-01 4.641954942948314233e-01 5.391116730058088669e-01 -5.814083761445829612e-01 2.307823832164914227e-02 -2.763177214672484228e-01 -1.423022410467751131e+00 6.381126142373225174e-02 4.951786264510907309e-01 -9.993928159106608700e-01 3.024069687854514799e-01 -1.344869327129790904e+00 1.456888939121216420e-01 -5.517580860164212897e-01 -1.530243820489555207e+00 -5.361653698027569748e-01 -2.151739695687102216e+00 -1.176557461961080624e-02 -1.237284146071410962e-01 4.990615816025941731e-01 9.347863160010594363e-02 -2.537407302028904077e+00 -3.169512126387367679e-01 -1.242889907725705845e+00 -2.802992347331312306e-01 -3.574425691858416632e-01 5.976921558515672084e-01 -1.908481932983440432e-01 -1.587827468460367264e+00 -2.373257523733586505e-01 5.003665865884935338e-01 -3.109841558122858451e+00 7.796393663569858301e-01 6.126506262185544838e-01 5.862303178683502258e-01 -1.127924480895861337e-01 7.406231529704151439e-01 -1.406831254235475948e+00 -8.943732945538005463e-01 -1.058665203500668506e+00 -2.293029177044264288e-01 1.496099608122019475e+00 -1.608347137896431467e-01 -1.255295943814314308e+00 1.342699579396789966e+00 -3.377962125595503351e-01 9.483937157511702631e-01 -9.806200542759524463e-02 2.170175730529113819e-02 7.967401234812471200e-02 -1.140049587394284858e+00 2.051575498779031059e-01 6.860737873296496314e-01 5.410958615265640814e-01 1.211018627652667101e+00 -2.939234831715856200e-02 1.400598737587089193e+00 1.249282228569808639e+00 1.824474493054317970e+00 2.787977799683719060e-01 -4.099179187691454063e-01 1.186876183643893745e-01 -6.698484797210033648e-01 1.878675836220506101e-01 5.191372237844218418e-01 -3.812907829741335464e-01 -3.412277275114007358e-01 -2.337639244438567687e-01 -5.916414862376575989e+00 -4.344849630876645996e-02 -6.090006452458294195e-01 -1.843655469034893857e-01 8.758915130958934148e-01 -1.644944777878875275e+00 -1.806553964998402761e-01 -2.019110648475723468e-01 -1.909053385185704776e+00 2.743552208212417742e+00 2.753390550798603398e-01 6.593068191363736785e-01 -2.679512905491571173e-01 1.097978742610204117e+00 -3.108622399923786084e+00 -1.798187863659325703e-01 -4.058909394321215669e-01 1.186494867702966305e-01 -1.004809504825521005e+00 -8.642047065501166914e-02 -7.559701724513433474e-01 -9.237595336011492075e-02 6.496483310491099061e-01 -8.924019832942479136e-01 3.660105853255680164e-01 3.278574778578950966e-01 9.679397400749040203e-02 -1.149735699394953459e+00 -1.728725720667579902e+00 1.504421974873207057e+00 -4.367437169246871087e-01 -3.967657990336283524e-01 7.510361689710792765e-02 7.132745629985333125e-01 7.051336707391548941e-01 2.451722525019880417e-01 -6.793873227059890052e-01 -9.806790630577771894e-01 -7.597053024649733088e-02 -6.602195318426841153e-01 7.339992785859009161e-02 -9.082618023493144177e-01 8.596929889084172771e-01 -6.140873275522233943e-01 -1.018422006988625728e-01 5.715294980696489224e-01 -2.630562818806650438e-01 1.103019039942316759e+00 -4.005449695396610110e-01 5.643532265730020203e-01 3.418436955853170756e-01 -2.692889837137790177e-01 -1.760709740542445223e+00 -2.816182370309217725e-02 4.423605833056861170e-01 1.291430382317170777e-01 1.405520820105073510e+00 -1.437805170855804560e-01 -4.472142711560880834e-01 7.233860401180913779e-01 1.612772037235484790e+00 1.151236432939338195e-01 -4.016043716779252870e-01 4.851204713103776656e-01 -8.126062665868375445e-01 -5.224549048868760703e-01 -8.318342155907867963e-02 2.402529222262692055e-02 1.873257718239187852e+00 7.397974316481880086e-01 -7.407379258378059550e-01 3.044945706895698517e-03 1.320462086408537294e-01 -8.494936158328948439e-01 3.061690658301658430e-01 -6.174608385734044191e-02 8.700297736208340016e-02 5.566920575297349405e-01 -5.833908817421604720e-01 -4.549004436212436553e-01 -2.156583150079022460e+00 -1.038269911931752193e-01 -4.854616645342824666e-01 -1.055123563556498584e-01 -1.860474690247858165e+00 1.066985322814266279e+00 -9.408414582982275176e-01 -4.947755009033792395e-01 1.390506919586077306e+00 2.102316498570782344e-01 1.452851651469673211e-01 -9.482584469155943552e-01 1.496193832308659655e+00 -3.851700738729588736e-01 -1.877024712072531201e-02 -2.174252834525297606e-01 -2.248869614028265462e-01 8.013749840845282857e-02 7.262046244533095773e-01 5.783292531557798766e-01 4.155398266461465262e+00 -3.937054893167789005e-01 -5.543934534377207290e-01 6.853511629817116146e-01 7.750593792731492737e-01 -2.651098996868128665e-01 1.321389116041335576e+00 1.232352740597637775e+00 9.904208788295286725e-01 1.460554313731112219e-01 2.250116274679356543e-01 3.135356046833720489e-02 -7.620625387503756620e-01 6.907661405424527779e-01 3.664830924357564412e-01 6.183763636140801045e-01 8.596018648677100638e-01 6.703033009311054613e-01 -1.064571033227309643e-01 5.922721714974810148e-01 -3.391960454714181505e+00 -2.226390424271754931e+00 -2.842448220936458769e-01 2.250195618306102263e-01 -5.054400313480081341e-02 2.482654685960617169e-01 7.750728811324689715e-01 3.481586716366354417e-01 5.268333888752758237e-02 2.601031618804160672e+00 4.601187744933611379e-01 -9.006132496241668894e-01 -2.620945936525022280e+00 2.706681454393923492e+00 4.299547132316777209e-01 -9.131215350432904110e-01 -2.259327974417387752e-01 5.287138180162892498e-01 -5.531815475445508445e-01 8.733454243533322892e-02 -1.606788154280616443e-01 1.534254645505063630e+00 6.121598482761436699e-01 -1.181285321870525762e-01 -1.565451557445058484e+00 1.079226690908458020e+00 -1.647795887201199516e+00 -2.203918990119066446e-01 9.744821077113421381e-01 -5.533678567191453457e-01 5.247129024759378257e-01 -8.463629853083801113e-02 8.808099103809818864e-01 1.997781324375188516e+00 6.956960328578808417e-01 -7.323512789834193404e-01 1.020751584188155370e-01 -1.273506243222251255e+00 -6.073791172950905315e-01 -3.881147454329221258e-01 -5.837882107807049747e-01 1.193322663035632225e-01 -4.017361923407781754e-01 -2.726309557675917206e-01 -7.735659389176912093e-01 -2.654364524155670702e-01 -3.729268619498569137e-01 1.359748259130997727e+00 1.162631409598981591e+00 -8.087243293287409429e-01 -1.055128830211338187e+00 -2.226527922116234293e-01 3.361230486865898759e-01 3.809442554121078017e-01 -1.098897356336024644e-02 -9.507823773943200329e-01 4.433741206192034490e-01 9.311602899594716432e-01 -3.090102187748398066e+00 7.731623421858788703e-01 -1.803807731430466244e-01 1.068605711212884390e+00 3.720364212843968454e-02 -5.814110455841173808e-01 -8.379079652625462393e-02 -1.701321778592193912e+00 1.392961242691730661e-01 -3.995608895672881911e-01 1.686842758961588640e-01 2.380476323701086638e+00 3.738469745924201670e-01 -5.769351457322120513e-01 -2.350409218816220225e+00 2.196885764663078611e+00 8.022325608685859644e-02 7.902331350472681093e-01 -1.986583192005283438e-01 1.356985715490873545e+00 5.357571805298027012e-01 4.123470485250073647e-01 1.130101375930690939e-02 4.084363011591070070e-01 1.262958421467474723e+00 -1.084788378545803733e-01 9.499328686186728210e-02 9.569514440701591684e-02 -1.022726890125680299e+00 -5.413074698666556772e-01 -1.871526710360073675e+00 -2.114773521845424220e+00 -4.746407615621963672e-01 -8.496824718850745084e-01 1.701432610160285575e-01 -2.110260368852314994e-01 -1.124861328524908166e-01 -4.715092518964683066e-01 -8.967533690923160106e-02 -5.628601292939984235e-01 8.366715367842321172e-01 4.026615414828634831e-01 -1.184391521499661148e-01 -1.752564903046466505e+00 1.198479864579706788e+00 1.318490846300086616e-01 -1.362700020662190203e+00 -6.147214973515736647e-01 3.563577154420238258e-01 5.609530440277912255e-01 -1.146915141736596810e+00 -9.207741418606743555e-02 -9.362718067074572437e-01 -9.195575320428394095e-01 -1.574855026619236265e+00 7.299128337972971003e-02 -3.079936070131656933e-01 -1.564909942425360301e+00 -1.139337473494640429e-01 -1.262943701186025613e+00 -5.023400804202413639e-01 1.888554286461659570e+00 6.147280740716561942e-01 -2.482825380636942914e+00 3.589205308951328721e-01 -1.669962973815185991e+00 -6.135503966186228730e-01 7.574687010089459216e-01 -3.098375864023470566e-02 -3.451789363493710794e-01 -3.921453514977892296e-01 8.375366119426225220e-01 2.316075831428074050e+00 -9.093509352371426102e-01 1.567661567557768532e+00 -4.111483847342189968e-02 -1.333342999793431183e+00 -1.346889135560544737e-01 -9.259406119858684669e-02 -1.835891104132621743e-01 -1.302648587688671311e+00 -1.404619858658771259e+00 -1.894518404028589648e-02 5.123324786306301393e-01
2.732699311936300113e+00 -2.185632724654357872e+00 -3.263925199633188612e-01 1.297908266437183045e+00 -2.839493808610562553e-01 1.335153388224232351e+00 -1.801430925991113208e+00 -4.116918270401434543e-01 2.502044179559846260e+00 1.744399928066913574e+00 -9.973742694448309853e-01 -2.453110629354594563e-01 -1.742994255433365502e+00 -5.919172896615079726e-02 1.956744503478147656e+00 6.311054798931299281e-01 3.713721154794702439e-01 -1.532203211150047650e+00 -7.324736199658326008e-01 3.431435930985406446e-01 4.620512994470030721e-01 8.403525075008193290e-02 -5.364662770865289421e-01 2.597653573066707744e-01 5.033326348763094149e-01 1.695397788213492962e-01 3.184765373798346122e-01 4.566238485592168383e-01 1.391609167841075578e+00 1.412644161222304851e+00 6.630290085328180982e-01 -8.684297523252991757e-01 4.153348774561648193e-01 -9.990319175475079749e-01 1.532574668875315238e+00 1.049118987931523250e+00 4.312375189953329691e-01 6.451546963800123269e-01 1.226247217111290366e+00 1.953013364264946372e-01 6.960983687944870546e-01 -1.042381522522880966e+00 -3.544918849609247635e-01 1.012218228612489668e+00 1.891834489124379903e-01 -1.209491888973879714e+00 -8.123472523288067793e-01 8.391040761841599416e-01 -1.911441364205228810e+00 -5.606428036756981870e-01 5.891113341591890790e-02 -6.894343120846043727e-01 8.098943251683854427e-01 -1.851770005486785275e-01 -1.856374132995918663e-02 -1.259394982330870105e+00 -3.554887298345954516e-01 2.298984122579431633e-01 1.271790904524046750e+00 5.606884710766466551e-01 -5.967234076719049041e-01 5.409226813193204753e-02 -8.859336812108487003e-01 2.537617484160020531e+00 -2.093716759042707931e+00 -1.151152929622784260e+00 -1.449123331032894146e+00 -2.374015256520993766e-01 -1.763944197690975046e-01 -9.108976659629992589e-01 -1.854329419656863820e-01 2.048133849738130952e+00 8.183573398738501758e-01 2.672724154767993077e-01 2.661151920322827324e-01 -3.622964800368984051e-01 -1.342345430769120274e+00 -1.356803688601431190e-01 -1.668094337908311520e+00 1.445691285452863628e+00 -9.203697065690623624e-01 -2.858856386003303940e-01 -5.949783058033899508e-01 5.497731885073630087e-01 1.317863078210156136e+00 2.246438901878175631e+00 -8.508575818228264476e-02 8.531214263699704592e-01 -2.069477353188722002e-01 1.429453798009397425e-01 -5.888151479779748509e-01 -1.372898786600085463e+00 3.798040606464506697e-01 -1.030612033471764333e+00 -2.729720668054673449e-02 1.334012942782912159e+00 -1.421192050542622765e+00 -2.112727651094022274e+00 6.075697083288533751e-01 -2.121665581873966477e+00 -9.994013352823652996e-01 -1.365702636836209516e+00 -9.070314958748416645e-01 5.221962590764473583e-02 9.737202030481628690e-01 -1.319914780171140167e+00 3.753563420034559117e-01 7.759709395524916342e-01 -1.827089036152086843e+00 -9.844246782597276813e-01 1.475571140679265092e+00 2.848912191287067408e-01 -4.145932040008735719e-01 -1.271365185991397917e+00 1.074411582883339822e+00 5.415636747398685502e-01 1.267058619338863767e+00 -1.243604760592946334e+00 3.550363091018461370e-01 2.880807062165148258e-01 -2.945376146078786950e-01 1.190811906269230169e+00 -2.498805618355985914e+00 5.930854156838678559e-01 -5.337968987017948086e-01 -1.703855995295167958e+00 6.550623800535351759e-02 -3.493389219876466556e-02 1.145215664619346319e+00 1.410888276995228674e+00 -1.075176067876227881e+00 -8.787001930691075158e-01 -1.802945598390130577e+00 1.012417626169642482e+00 -5.253967916458847087e-01 5.744080592876221747e-01 -2.671504448755063432e+00 1.260688841791916870e+00 1.829646144124543516e+00 1.364381293098888837e-01 -1.015313334367834094e-02 1.146377386483407701e+00 -4.903578856965377236e-02 9.958014268677205516e-01 -1.145716844323105388e+00 2.171038448888823691e+00 -1.168734041564549520e+00 7.225715501854845790e-02 -1.733998200269462719e+00 -7.388464303987134496e-01 5.279293677878815760e-02 -1.424563568021669280e+00 7.355223933838056505e-02 -1.190914061631865639e+00 7.324297808683646327e-01 -9.039808432593181287e-02 -4.105129380327026123e-01 6.973850999373237824e-01 -1.426871131144721305e+00 1.226121409661574235e+00 -1.356623100333874898e+00 -1.296432160592214000e+00 1.763674360056586843e-01 3.303973698237516188e-01 -1.199134756795798396e+00 -1.706746855853388034e+00 2.740807803750082150e-01 -1.816289605058670986e+00 -2.378868262045397142e+00 -1.737691110675450679e+00 6.198119320153371303e-01 -1.033256610355048011e+00 1.990243907503533194e+00 -7.875356962806354666e-01 -2.259736056880603972e+00 7.965374925330892530e-01 -1.612280466926122591e+00 2.633932628678339327e-01 1.013811554551209859e+00 -1.071043076392680371e+00 -1.355010420212281241e+00 -3.509512785717470162e-01 5.964936150781847274e-02 1.009591666014818978e+00 -2.446632379733212126e+00 -5.084885871944072600e-01 -7.676361700472994487e-01 -1.895152645018119530e+00 -1.514122975117589087e+00 -1.980537466908526278e+00 -1.138347653758374101e+00 -1.577580304315091553e-01 -1.240869964880571663e+00 -4.986361463512460901e-01 -2.222472205878677221e-01 -7.167951616038477081e-01 -3.021455188152984972e-01 5.242399120909050358e-01 -1.900236571449996914e+00 -3.498560543568056402e-02 -5.016188386952388223e-01 2.183215907783418341e+00 -1.919357287270326007e-01 1.592601102153451409e+00 2.128566267800651612e+00 -9.726598133995476569e-01 9.861512659719542384e-01 -6.434767800631976398e-01 2.512938568783315008e-01 5.101094592223510693e-01 -1.848408628915535923e+00 -5.252726350369140151e-01 3.270465953785660851e+00 1.435346895600046579e+00 6.847909671780405549e-01 -1.448991590389667294e+00 -4.890865034356831065e-03 8.723006495776209901e-01 1.064587178237316634e+00 -2.080039258211805464e+00 1.243159109416358543e+00 -2.238649388792275818e+00 1.064899914391524316e+00 -2.762887465497829709e-01 -1.405726697338188336e+00 6.790543919600495748e-01 -4.446715557467225688e-01 9.508258076003819892e-03 1.076990705052778052e+00 -2.002323263677309728e-01 1.039620172790176378e+00 -4.840108773469957160e-01 -3.198521508982123396e-01 1.524150803773372864e+00 4.477299076003837114e-02 2.102905344793875031e-01 1.601727739515180771e+00 4.732493099251254276e-01 -1.217204275985855344e-01 -8.953991624052924925e-01 -7.890503351443826086e-01 -1.159360684394722174e+00 -2.901647080524936140e+00 4.803520351121462473e-01 -1.387869255339547969e+00 -5.360149846948110142e-01 -2.271894746210772753e-01 -2.065612343024544106e+00 2.686013201648972948e-01 9.731133375030142085e-01 -1.018409560107237599e+00 2.165783871676796757e+00 1.353218836601437935e+00 2.810031587561157007e+00 1.017601953771027690e+00 1.282336146191579207e+00 -7.531807973440985959e-01 2.919543426724052204e-01 -4.653024451857195043e-01 8.005529273313944927e-01 4.951615231942181894e-01 -1.296722698247514627e+00 -1.733758774057738428e-01 1.050603065528665225e-01 2.305116053547269228e+00 -5.153205192505845300e-01 1.905780711538035188e+00 4.926576349030170610e-01 -8.506054528757870381e-01 3.170775468230976335e-01 -4.936327752391893586e-01 -1.146475331131072972e-01 2.650800825588192633e-01 -1.898504583310406391e+00 1.393474148141303326e+00 -7.660894632787842440e-01 -1.590224944153129316e+00 2.932433257245202485e-02 1.347380244317953224e+00 -2.106217820930051499e+00 -1.389765013238250801e-01 8.994097293538216853e-01 -2.625510333963561038e+00 1.471919285308277980e-01 -2.122939649329809164e-01 4.787076448918646809e-01 -1.434860327983809025e+00 7.188116703517516415e-01 2.142569662727077384e-01 5.594177571867865462e-01 -2.784975196489750116e-01 -1.045533213962697855e-01 -1.146399913199660059e+00 -6.147681715221292587e-01 -6.973187524954800320e-01 -2.291088786979157188e+00 -6.234731811639648846e-01 8.428754758695802263e-01 -7.032572742721217018e-01 -7.856844596335214870e-02 8.736330492999225261e-03 -1.346314182665188930e-01 -4.969573763647401887e-01 -7.713103524446591752e-01 -1.175345974444977237e+00 2.738175721857603051e-01 1.076538972836002417e+00 2.082198968784383819e+00 1.464071078756170041e-01 -1.236302014442898001e+00 7.329346216316796614e-01 8.732211931575423192e-01 1.312987201757500055e-01 -6.924390936471855329e-02 8.025265440753646118e-01 1.791820958984674250e-01 -3.174669906983000334e-01 9.241423620224114011e-01 9.463780573095310622e-01 1.276213311038273179e+00 -4.576478353322790960e-01 -9.243525815656916667e-01 2.467271952756109610e-01 1.081255340784823549e+00 2.998328280259658918e+00 -1.583571273154837922e+00 3.863702869187093242e-02 8.648813646759140328e-01 -1.558111347293243298e+00 1.809196656293416750e+00 3.409763891469840269e-01 1.721071578227137522e+00 1.060804629654221065e+00 9.400738665626424684e-01 -4.752016505901914267e-01 -1.161213547902840926e+00 -5.179021554544995798e-01 1.214607185438729253e+00 -5.165689784761752223e-01 2.407933682668799591e+00 1.319482316593849180e+00 -9.990110836912186043e-01 -5.462609840150783880e-01 -1.591699404474641172e-02 3.544743193248616642e+00 -2.724250206627278903e+00 -4.938616565773077394e-01 -1.070191718395991920e-01 -1.393415572290611859e+00 7.723292443241600025e-02 -2.243648588395942833e-01 3.861678041686236740e-01 -5.004723713605899738e-01 -1.675414483007843458e+00 -7.436477985584017958e-01 -5.018871515980325437e-01 1.393163167487082132e+00 5.999468564899390621e-01 -1.366985547249923272e+00 2.235391504389117046e+00 -1.133755066611818185e-01 5.931608885085969396e-01 -4.344587462919995424e-01 3.371792414228125812e-01 1.557588972363919577e+00 7.494086794666363627e-01 1.138170674878667077e+00 -1.292539762465953812e+00 4.782893907514215170e-01 1.552263002115490675e-01 9.244458000620561222e-01 -1.293990626453650039e+00 3.971368003893853693e+00 -6.710799088576696603e-01 2.149883850467401714e-01 4.375093142787276901e-01 1.574155575308751331e-01 1.994457743268264194e-01 1.831287450501542402e+00 1.285313058316688073e+00 2.236182456986685746e-02 2.380585955510381879e+00 -3.757746229571995444e-01 -1.820470339400960036e+00 -8.760471823411591918e-01 1.394041189506499245e+00 -1.992976576929958776e+00 -6.518235351425726298e-01 9.497451052851226816e-01 2.223221182038722099e-01 -3.108115314294687126e-01 -1.837242095472549908e+00 1.870805938089018960e+00 7.183029082803326082e-01 -7.874044922649899858e-01 8.132196181746909058e-01 1.388384496944133462e+00 3.089553042649252346e-01 -6.322544389341883120e-01 -2.132183423003312095e-01 -3.434137485392740330e-01 -8.488104273586727366e-01 -2.460332605166777320e-01 -6.536426823554041254e-01 5.942732717108087925e-01 1.384532418300749024e+00 2.445046506377713147e+00 -1.890785302032388926e-01 5.402515527569302645e-01 -3.758456779959130634e-01 -1.551175785594322898e+00 -4.788117871167638651e-01 -1.511179638378666201e+00 1.265029579299153384e-01 2.076819957832130026e+00 3.303962315981379572e+00 1.095059832129247290e+00 1.608616353159652290e-01 -5.817922482221693503e-01 -4.877820320709379542e-01 -9.750302568478067533e-01 3.688288868222750622e-02 2.549333413465286746e-01 1.359333330467068723e+00 -1.078297051748844382e-01 2.238099974018239735e-01 1.256119430656003511e+00 2.470800825198977424e-01 -5.654569951831827507e-02 -6.623450181446474128e-01 1.934062635870167801e+00 1.090751013039042566e-01 -8.937892347018525641e-01 -7.799297129258738748e-01 -1.328852012725342924e+00 -1.490691062184602789e+00 7.561758438118618697e-01 3.296969219775009452e-01 -1.664038313774367950e+00 -5.463088357710041976e-01 4.650818833177787492e-02 4.925129860403540394e-02 9.109808162432211365e-01 -9.830142168175805273e-02 -6.317183584741029589e-01 -5.244800749141630136e-02 4.149944571254413628e-01 3.213263995481911106e+00 -6.351242289757990100e-01 1.221561634151072218e+00 1.077750134007311900e+00 -9.126504691159124105e-01 -7.982116265393530696e-01 -2.622138540517751637e-01 1.736182311450685356e+00 6.830715635495857585e-01 -2.228363431545626661e+00 8.503898136254145479e-01 -3.999180540935027839e+00 1.726475686614258764e+00 6.247597834920097515e-02 1.104434172174299178e+00 2.193481316378099510e+00 -1.726385818974166098e+00 8.571552093863844535e-01 -8.152853860261952690e-01 -1.877634246659841910e+00 1.433061191472479567e+00 1.334489233809569519e+00 2.093649566871455203e+00 2.591081680692812195e-01 -2.256293851959856323e+00 9.014138037856849195e-01 5.100317652900555609e-01 -1.881977101961721521e+00 9.453573900058084289e-01 -1.494044982544814770e+00 -9.120645964301177244e-01 -1.708353634972460400e-01 8.266621740568897980e-01 -5.607849409848640887e-01 -1.215509039498066768e+00 1.005503415760195418e+00 2.208480188626567919e+00 -4.437080814793131767e-01 3.640775342559703365e-01 -2.784695956042653187e-01 -2.171823591920782004e+00 2.553090392474661297e+00 -1.891339069179578614e+00 1.048282114942551857e+00 9.943740672304358652e-01 6.459033673931582342e-01 2.133828606042088349e+00 -8.809956886586963742e-01 1.068729000356875902e+00 4.242417791723391840e-01 -2.260143684046821144e-01 -5.874411967566869341e-01 -9.267636152898844903e-01 1.179692210993888102e+00 6.766671107001317464e-01 -2.041731028714797613e+00 1.176430827623013320e+00 -6.866527188357134381e-01 -2.323616468055756723e+00 1.636033594885612397e+00 -2.069012380371554605e-01 -1.394447057744446772e+00 1.222828262721717296e+00 3.744518093400150405e-01 9.662717184229707712e-02 -8.973382887283979370e-01 9.699768973352820844e-02 2.264823444603024372e-02 5.801438824271493155e-01 2.604885635847010494e+00 -1.775821845555138404e-02 -8.276764761768640177e-01 -9.323220633431368587e-02 1.571655107865671530e+00 -6.969694447327434705e-01 -3.576769950154395222e-02 -9.395215065191647730e-01 1.851878897117794853e+00 6.384072478702433606e-02 -4.846268337320333019e-01 4.863113256130001116e-01 1.338289352664936649e+00 1.221496075336216514e+00 -2.186940049146550991e-01 -6.304232220868924985e-01 6.155344594736864572e-01 -9.016594504493420370e-01 2.722360203141418911e+00 -9.045136530975993461e-01 -5.073739937270480560e-01 1.214570547837379833e+00 2.658647987897847509e-01 -2.656943092644432625e-01 1.563592063497557305e+00 3.401186539690844585e-02 1.817554349328274421e+00 8.016585677535639221e-01 1.086444268803492985e+00 -1.907238487507128877e+00 5.460455978437103730e-02 1.865267672051289516e-01 -1.321860933548607120e+00 1.536296313508957734e-01 1.166483419631936524e-01 7.449237304906430879e-02 -3.994189208076949771e-01 7.122318171742871851e-01 6.177345312952934320e-01 2.607263785650655308e+00 -4.155026608946791322e-01 -1.329657352662095615e+00 5.239526492050073925e-01 -1.939793731877992866e-01 2.049355786712984351e+00 -2.878380059450193901e-02 3.734004110242202246e-01 -2.148221620636823648e+00 -2.217093362865832917e-01 -9.983306670606484357e-04 -1.162701604110786491e+00 9.757851960848638040e-01 1.842495958812287171e-01 2.811163192538632671e-01 -5.734816549977822531e-01 2.079420258872317351e-01 2.640304015438583729e-01 9.099359446087758041e-01 -2.934392400064993023e+00 -1.264406713184614173e+00 -1.127168126604698672e+00 2.420328249130663523e-01 -2.453064965390842345e-01 -7.203857115989193982e-01 2.097402091883749709e+00 -4.784780065285587636e-01 1.378823237040111893e+00 -1.816698330862962507e-01 1.013355808586748008e+00 8.569809297203531129e-01 7.760190262672639339e-01 2.326476432285576212e+00 9.189379386329643573e-01 -1.172882056589177768e+00 -9.559460520452253141e-01 -2.393058081188838226e+00 -1.445802657886248177e+00 -1.224656609196937751e+00 3.761854602915815082e-01 8.632551889964022729e-02 4.527900153574676567e-01 -7.487241450372900120e-01 3.362974117071052538e-01 7.728734718736256504e-01 1.135785156186787326e+00 -3.685510446320603983e-01 -9.577609235546349908e-02 1.357835786199657946e+00 8.965112592940982505e-01 1.155438441200266064e+00 2.295080278748241387e+00 5.764020408200167811e-01 -1.281336463809893633e+00 -8.831816684202918599e-02 3.943282922642187271e-01 -2.979108284352670832e+00 6.730497593614817031e-01 1.685114697581003407e+00 4.821996741114138452e-01 -2.393686858014633101e-01 4.267396606194570619e-01 -3.869372036249705826e-01 1.950845063895887688e-01 1.165008202037608534e-02 -1.086034020748611661e+00 4.628064245934270238e-01 -3.415500943421045377e-01 -1.541547524686158077e+00 -1.395555472416216691e+00 5.257132732072111736e-01 -8.986440667495445567e-01 1.636299378065553922e+00 -1.587139507876029754e+00 -1.266022714740113742e+00 -1.097581867959303459e+00 -7.503649580414830655e-01 1.364449523482992532e+00 1.099905902039197692e+00 7.079385717667318056e-01 1.585174433506800207e-01 3.805105796765659854e-01 1.300283149720601550e+00 7.297682412393833307e-01 -1.448274981877320622e+00 -6.555845228273410319e-01 -9.329756965887106013e-01 2.572879655228089035e+00 -8.853071071549475368e-01 -1.034393171292990327e-02 -1.249277144538235573e+00 5.805169922899534596e-01 2.731605721781555030e+00 1.031175870947365736e+00 3.535218933165798494e-01 -9.055915254187704155e-01 1.710499752585110000e+00 5.008502182415772719e-01 -2.424719388341332937e+00 -3.605151313633745969e-01 -5.348332620358067224e-01 2.150724523623042561e+00 -8.971884887226195815e-01 5.035346319144109462e-01 -2.151238023318355341e-01 -1.790629329827651661e+00 1.450248946763334157e+00 1.012457992694623110e+00 1.523916262205944061e-01 -5.641301831395443278e-01 -4.160600504470712835e-01 -1.536398193427289116e-01 -5.273010914438708285e-02 8.999518336904825944e-01 1.263013673651573798e+00 -1.846153294686629476e+00 -2.599482805180074463e-01 -7.746871845464468054e-01 1.901265022078749700e-01 -1.339722021896601278e+00 -7.999099945446599413e-01 3.306525417049788196e-01 -6.639809810647478994e-01 2.227675555552427245e+00 1.226125520294963245e+00 1.631095368193238082e+00 -6.403539084916006763e-01 3.057389694197208962e-01 8.530169584002755823e-02 4.848578112380569349e-02 8.248917714735286566e-01 4.539069152057692569e-01 5.855384933822670446e-01 7.402281296323520721e-01 -3.307829586728858740e-01 1.612865411504902147e+00 -1.428516141276512830e+00 2.790873682039699544e-01 -8.539990602830382915e-01 -3.103476429650885993e-01 -7.078589811668589693e-02 -5.888740418754812023e-01 7.805867973121050074e-01 1.533921259911590784e+00 -5.960076839522913117e-01 2.226487921850272000e-01 -8.892469215011394867e-01 -3.916725809486069076e-01 -1.017175191772031084e+00 -1.125103322401498074e-01 -2.119373070256616587e-01 -1.242752882581345947e-01 2.339303626857094087e-01 6.719189098670902416e-01 -5.885569344086233334e-01 -3.163458209392262521e-01 -9.417396985495455342e-01 -1.398435873204391944e-01 1.709657859225410359e+00 -1.058519430549228924e+00 -1.089687145985966499e+00 1.018185633186512451e+00 3.181150465774472469e+00 6.525450812954768087e-02 5.962229475008934410e-01 -1.393263014570051972e+00 -8.431869093500450607e-02 -6.780597218299000417e-02 2.410832855754448667e-01 6.116360600670975867e-01 -1.315975867694904267e+00 -7.579889690466630192e-01 1.071041867378007134e-01 -1.269851534892374012e+00 -1.406009399030912821e+00 -2.563760451139583729e+00 8.117611326875119326e-01 -1.798674395693196093e+00 2.178838971311809924e+00 -1.761404720228056664e-01 6.185318821224228270e-01 -2.774174470324253239e-01 -7.454640441025820463e-01 -7.025804262242556497e-01 8.758590355730753174e-01 -9.093633464908554842e-01 6.826121028020490922e-01 -2.500515412510790014e+00 -4.708449675600356876e-02 -6.756004165525106298e-02 -4.672259646513203246e-01 -3.022638181811191926e-01 4.839976465332540556e-01 2.086323829611868297e-01 5.055983011565683416e-01 2.576537870746979042e+00 -1.434086327907904357e+00 7.025882248845374267e-01 8.848547204198789484e-02 5.775774222005018999e-01 1.551520528708188795e+00 -2.941251776771833248e-01 4.582822444714962917e-01 -3.006875525680995920e-01 4.659411410300712819e-01 -1.330827934362044607e+00 2.118832454887259242e+00 -1.934931614390230425e+00 -2.108484859628098285e+00 1.151168312149472239e+00 1.082842466295043549e+00 1.705326600403754833e+00 -2.317932025856179468e-01 4.543657917942473534e-01 -1.304426148853675249e+00 1.579493725202006371e-01 1.383351508925144691e+00 4.753607002364905743e-01 1.514540376682754763e+00 2.235478016258611589e-01 -2.979541476089891949e-01 2.136312540677047511e-02 -2.340349670052479514e+00 9.289566342583527314e-01
