# 
#                 ----------------------------------------------------
#                 Data from a 3D direct N-body simulation. 
# 
#                 rows are i-particle; 
#                 coumns are :mass, tag, x ,y, z, vx, vy, vz, ax, ay, az
# 
#                 NTHU, Computational Physics 
# 
#                 ----------------------------------------------------
#                 Time = 0.0
0.000000000000000000e+00 1.000000000000000000e+00 2.000000000000000000e+00 3.000000000000000000e+00 4.000000000000000000e+00 5.000000000000000000e+00 6.000000000000000000e+00 7.000000000000000000e+00 8.000000000000000000e+00 9.000000000000000000e+00 1.000000000000000000e+01 1.100000000000000000e+01 1.200000000000000000e+01 1.300000000000000000e+01 1.400000000000000000e+01 1.500000000000000000e+01 1.600000000000000000e+01 1.700000000000000000e+01 1.800000000000000000e+01 1.900000000000000000e+01 2.000000000000000000e+01 2.100000000000000000e+01 2.200000000000000000e+01 2.300000000000000000e+01 2.400000000000000000e+01 2.500000000000000000e+01 2.600000000000000000e+01 2.700000000000000000e+01 2.800000000000000000e+01 2.900000000000000000e+01 3.000000000000000000e+01 3.100000000000000000e+01 3.200000000000000000e+01 3.300000000000000000e+01 3.400000000000000000e+01 3.500000000000000000e+01 3.600000000000000000e+01 3.700000000000000000e+01 3.800000000000000000e+01 3.900000000000000000e+01 4.000000000000000000e+01 4.100000000000000000e+01 4.200000000000000000e+01 4.300000000000000000e+01 4.400000000000000000e+01 4.500000000000000000e+01 4.600000000000000000e+01 4.700000000000000000e+01 4.800000000000000000e+01 4.900000000000000000e+01 5.000000000000000000e+01 5.100000000000000000e+01 5.200000000000000000e+01 5.300000000000000000e+01 5.400000000000000000e+01 5.500000000000000000e+01 5.600000000000000000e+01 5.700000000000000000e+01 5.800000000000000000e+01 5.900000000000000000e+01 6.000000000000000000e+01 6.100000000000000000e+01 6.200000000000000000e+01 6.300000000000000000e+01 6.400000000000000000e+01 6.500000000000000000e+01 6.600000000000000000e+01 6.700000000000000000e+01 6.800000000000000000e+01 6.900000000000000000e+01 7.000000000000000000e+01 7.100000000000000000e+01 7.200000000000000000e+01 7.300000000000000000e+01 7.400000000000000000e+01 7.500000000000000000e+01 7.600000000000000000e+01 7.700000000000000000e+01 7.800000000000000000e+01 7.900000000000000000e+01 8.000000000000000000e+01 8.100000000000000000e+01 8.200000000000000000e+01 8.300000000000000000e+01 8.400000000000000000e+01 8.500000000000000000e+01 8.600000000000000000e+01 8.700000000000000000e+01 8.800000000000000000e+01 8.900000000000000000e+01 9.000000000000000000e+01 9.100000000000000000e+01 9.200000000000000000e+01 9.300000000000000000e+01 9.400000000000000000e+01 9.500000000000000000e+01 9.600000000000000000e+01 9.700000000000000000e+01 9.800000000000000000e+01 9.900000000000000000e+01 1.000000000000000000e+02 1.010000000000000000e+02 1.020000000000000000e+02 1.030000000000000000e+02 1.040000000000000000e+02 1.050000000000000000e+02 1.060000000000000000e+02 1.070000000000000000e+02 1.080000000000000000e+02 1.090000000000000000e+02 1.100000000000000000e+02 1.110000000000000000e+02 1.120000000000000000e+02 1.130000000000000000e+02 1.140000000000000000e+02 1.150000000000000000e+02 1.160000000000000000e+02 1.170000000000000000e+02 1.180000000000000000e+02 1.190000000000000000e+02 1.200000000000000000e+02 1.210000000000000000e+02 1.220000000000000000e+02 1.230000000000000000e+02 1.240000000000000000e+02 1.250000000000000000e+02 1.260000000000000000e+02 1.270000000000000000e+02 1.280000000000000000e+02 1.290000000000000000e+02 1.300000000000000000e+02 1.310000000000000000e+02 1.320000000000000000e+02 1.330000000000000000e+02 1.340000000000000000e+02 1.350000000000000000e+02 1.360000000000000000e+02 1.370000000000000000e+02 1.380000000000000000e+02 1.390000000000000000e+02 1.400000000000000000e+02 1.410000000000000000e+02 1.420000000000000000e+02 1.430000000000000000e+02 1.440000000000000000e+02 1.450000000000000000e+02 1.460000000000000000e+02 1.470000000000000000e+02 1.480000000000000000e+02 1.490000000000000000e+02 1.500000000000000000e+02 1.510000000000000000e+02 1.520000000000000000e+02 1.530000000000000000e+02 1.540000000000000000e+02 1.550000000000000000e+02 1.560000000000000000e+02 1.570000000000000000e+02 1.580000000000000000e+02 1.590000000000000000e+02 1.600000000000000000e+02 1.610000000000000000e+02 1.620000000000000000e+02 1.630000000000000000e+02 1.640000000000000000e+02 1.650000000000000000e+02 1.660000000000000000e+02 1.670000000000000000e+02 1.680000000000000000e+02 1.690000000000000000e+02 1.700000000000000000e+02 1.710000000000000000e+02 1.720000000000000000e+02 1.730000000000000000e+02 1.740000000000000000e+02 1.750000000000000000e+02 1.760000000000000000e+02 1.770000000000000000e+02 1.780000000000000000e+02 1.790000000000000000e+02 1.800000000000000000e+02 1.810000000000000000e+02 1.820000000000000000e+02 1.830000000000000000e+02 1.840000000000000000e+02 1.850000000000000000e+02 1.860000000000000000e+02 1.870000000000000000e+02 1.880000000000000000e+02 1.890000000000000000e+02 1.900000000000000000e+02 1.910000000000000000e+02 1.920000000000000000e+02 1.930000000000000000e+02 1.940000000000000000e+02 1.950000000000000000e+02 1.960000000000000000e+02 1.970000000000000000e+02 1.980000000000000000e+02 1.990000000000000000e+02
1.000000000000000000e+00 1.000000000000000000e+00 1.000000000000000000e+00 1.000000000000000000e+00 1.000000000000000000e+00 1.000000000000000000e+00 1.000000000000000000e+00 1.000000000000000000e+00 1.000000000000000000e+00 1.000000000000000000e+00 1.000000000000000000e+00 1.000000000000000000e+00 1.000000000000000000e+00 1.000000000000000000e+00 1.000000000000000000e+00 1.000000000000000000e+00 1.000000000000000000e+00 1.000000000000000000e+00 1.000000000000000000e+00 1.000000000000000000e+00 1.000000000000000000e+00 1.000000000000000000e+00 1.000000000000000000e+00 1.000000000000000000e+00 1.000000000000000000e+00 1.000000000000000000e+00 1.000000000000000000e+00 1.000000000000000000e+00 1.000000000000000000e+00 1.000000000000000000e+00 1.000000000000000000e+00 1.000000000000000000e+00 1.000000000000000000e+00 1.000000000000000000e+00 1.000000000000000000e+00 1.000000000000000000e+00 1.000000000000000000e+00 1.000000000000000000e+00 1.000000000000000000e+00 1.000000000000000000e+00 1.000000000000000000e+00 1.000000000000000000e+00 1.000000000000000000e+00 1.000000000000000000e+00 1.000000000000000000e+00 1.000000000000000000e+00 1.000000000000000000e+00 1.000000000000000000e+00 1.000000000000000000e+00 1.000000000000000000e+00 1.000000000000000000e+00 1.000000000000000000e+00 1.000000000000000000e+00 1.000000000000000000e+00 1.000000000000000000e+00 1.000000000000000000e+00 1.000000000000000000e+00 1.000000000000000000e+00 1.000000000000000000e+00 1.000000000000000000e+00 1.000000000000000000e+00 1.000000000000000000e+00 1.000000000000000000e+00 1.000000000000000000e+00 1.000000000000000000e+00 1.000000000000000000e+00 1.000000000000000000e+00 1.000000000000000000e+00 1.000000000000000000e+00 1.000000000000000000e+00 1.000000000000000000e+00 1.000000000000000000e+00 1.000000000000000000e+00 1.000000000000000000e+00 1.000000000000000000e+00 1.000000000000000000e+00 1.000000000000000000e+00 1.000000000000000000e+00 1.000000000000000000e+00 1.000000000000000000e+00 1.000000000000000000e+00 1.000000000000000000e+00 1.000000000000000000e+00 1.000000000000000000e+00 1.000000000000000000e+00 1.000000000000000000e+00 1.000000000000000000e+00 1.000000000000000000e+00 1.000000000000000000e+00 1.000000000000000000e+00 1.000000000000000000e+00 1.000000000000000000e+00 1.000000000000000000e+00 1.000000000000000000e+00 1.000000000000000000e+00 1.000000000000000000e+00 1.000000000000000000e+00 1.000000000000000000e+00 1.000000000000000000e+00 1.000000000000000000e+00 1.000000000000000000e+00 1.000000000000000000e+00 1.000000000000000000e+00 1.000000000000000000e+00 1.000000000000000000e+00 1.000000000000000000e+00 1.000000000000000000e+00 1.000000000000000000e+00 1.000000000000000000e+00 1.000000000000000000e+00 1.000000000000000000e+00 1.000000000000000000e+00 1.000000000000000000e+00 1.000000000000000000e+00 1.000000000000000000e+00 1.000000000000000000e+00 1.000000000000000000e+00 1.000000000000000000e+00 1.000000000000000000e+00 1.000000000000000000e+00 1.000000000000000000e+00 1.000000000000000000e+00 1.000000000000000000e+00 1.000000000000000000e+00 1.000000000000000000e+00 1.000000000000000000e+00 1.000000000000000000e+00 1.000000000000000000e+00 1.000000000000000000e+00 1.000000000000000000e+00 1.000000000000000000e+00 1.000000000000000000e+00 1.000000000000000000e+00 1.000000000000000000e+00 1.000000000000000000e+00 1.000000000000000000e+00 1.000000000000000000e+00 1.000000000000000000e+00 1.000000000000000000e+00 1.000000000000000000e+00 1.000000000000000000e+00 1.000000000000000000e+00 1.000000000000000000e+00 1.000000000000000000e+00 1.000000000000000000e+00 1.000000000000000000e+00 1.000000000000000000e+00 1.000000000000000000e+00 1.000000000000000000e+00 1.000000000000000000e+00 1.000000000000000000e+00 1.000000000000000000e+00 1.000000000000000000e+00 1.000000000000000000e+00 1.000000000000000000e+00 1.000000000000000000e+00 1.000000000000000000e+00 1.000000000000000000e+00 1.000000000000000000e+00 1.000000000000000000e+00 1.000000000000000000e+00 1.000000000000000000e+00 1.000000000000000000e+00 1.000000000000000000e+00 1.000000000000000000e+00 1.000000000000000000e+00 1.000000000000000000e+00 1.000000000000000000e+00 1.000000000000000000e+00 1.000000000000000000e+00 1.000000000000000000e+00 1.000000000000000000e+00 1.000000000000000000e+00 1.000000000000000000e+00 1.000000000000000000e+00 1.000000000000000000e+00 1.000000000000000000e+00 1.000000000000000000e+00 1.000000000000000000e+00 1.000000000000000000e+00 1.000000000000000000e+00 1.000000000000000000e+00 1.000000000000000000e+00 1.000000000000000000e+00 1.000000000000000000e+00 1.000000000000000000e+00 1.000000000000000000e+00 1.000000000000000000e+00 1.000000000000000000e+00 1.000000000000000000e+00 1.000000000000000000e+00 1.000000000000000000e+00 1.000000000000000000e+00 1.000000000000000000e+00 1.000000000000000000e+00 1.000000000000000000e+00 1.000000000000000000e+00 1.000000000000000000e+00 1.000000000000000000e+00 1.000000000000000000e+00
8.380913824506848187e-01 3.974283234476971849e-01 1.302913759063473176e-01 5.862804995164975219e-01 8.889097532683117864e-01 6.014846083532470189e-01 2.251690819857328218e-01 7.189434054222043624e-01 1.246144375115820768e-01 9.662571293060593369e-01 5.165397170783259106e-01 7.526067709361710101e-01 8.416496851988715111e-01 5.756641816662823041e-01 3.673330705640543981e-01 3.789226852828705416e-01 3.966769402278491619e-01 9.497640385954706499e-01 4.265393501328575976e-01 6.561942807784545417e-01 5.234668612285210409e-01 1.834551703859503835e-01 2.439444828406941435e-01 7.179277100756964458e-01 8.269704540390754310e-01 8.216900850095080200e-01 4.084147868448154695e-01 1.930458365583335167e-01 3.142479444902980257e-01 4.154417785422918064e-01 3.011938204381969797e-02 6.257169110430825798e-01 5.744064230531170656e-01 4.386226286452812317e-01 1.599167182210718963e-01 7.806765083852362785e-02 1.359447010921974730e-01 2.065994535230966100e-01 8.054131901708616592e-01 8.107067949753452574e-01 9.825372703091123094e-01 1.555755305023009960e-02 9.017584217941840841e-01 1.698648303402040538e-01 3.407328091169855577e-01 4.673322061126575777e-01 9.517737008140081389e-02 7.665015636634139318e-01 5.031998590286428374e-01 2.175544667042197400e-01 1.920179645930092382e-01 9.447362079876696628e-01 3.408085280083398283e-01 7.200251215115491821e-01 6.228333692221039719e-01 6.539979364876269408e-01 7.961132164542442657e-01 4.076950204196582161e-01 2.833640341523372408e-01 6.499238285842506846e-01 7.533103390106832276e-01 5.038977280992656960e-01 9.839630153640170906e-01 7.537249470835236664e-01 9.324789782483502432e-01 4.585700340272772513e-01 4.782774368558665445e-01 5.468336255876691254e-01 4.127103987286533382e-01 5.216879647796187625e-01 1.934173581409170950e-02 4.792253769839285304e-01 2.752687750758842089e-01 3.852002263594478393e-02 9.503263144985610866e-01 8.072898368280031489e-01 6.480368246263380483e-01 7.293701212810396184e-01 3.825007576506395113e-01 3.677168247842206306e-01 7.800749098280048699e-01 7.935062908036613072e-01 8.433207960900260813e-01 3.164384348669950775e-01 7.416612543990225292e-01 6.180458240547910265e-01 7.686294015356177622e-01 8.078195267476910857e-01 8.267865712623685415e-01 3.547740478389160845e-02 5.967569186671658477e-01 7.420050130953813605e-01 5.750502167435636025e-01 1.369579807416997363e-01 7.273986511493668594e-01 5.954177630725194792e-01 7.891993435683720692e-01 7.025347337983085527e-01 9.078750654333784809e-01 4.535769389739665591e-01 3.998289921708406691e-01 5.524938255640133855e-01 5.246646947465699595e-01 3.412456363950158167e-01 3.706406795001992993e-02 5.353846609600713125e-01 1.110472769348712641e-01 8.900478336141689484e-01 6.701296229331151766e-01 2.866158107697333035e-01 4.590669764579409229e-01 3.174701706968521275e-01 3.981614010029298489e-01 4.537641977872830523e-02 1.468513110496332263e-01 7.510489328779985652e-01 7.026767097777775195e-01 6.488154047006258196e-01 8.146623168981997898e-01 5.797011981813675607e-01 6.107615959174317322e-01 7.929963776341536486e-01 4.342634931957650712e-01 5.460380938549709295e-01 8.997867849092635595e-01 3.307585927214641286e-01 4.370666429887284377e-01 6.834052568010763329e-01 7.700318693628375177e-01 1.964366324757333970e-01 4.598977683192717603e-01 9.395031535567184289e-01 3.069220433344580501e-01 2.153389397511898951e-01 5.833974186585290100e-01 3.127029577427159479e-01 2.100340328571262960e-01 6.404800042445953911e-01 1.524891925769567003e-02 6.460396306268628708e-01 8.579019331077790689e-01 3.243096173155279871e-02 4.424880288838968223e-01 2.197263037913785855e-01 9.836734155596217333e-01 7.671252876901252238e-01 7.208310260803548752e-01 1.774455465917301744e-02 8.223629750293850460e-01 9.768147027085670731e-01 9.846970352767748791e-01 8.430028631487361812e-01 8.951706749125321050e-01 5.575497176113720643e-01 5.913924483964423384e-01 6.770612728114272505e-01 9.701673493248553770e-01 3.310495332430914983e-01 9.135723383255542895e-01 3.184921313091850781e-01 2.735321114271855869e-01 1.628827414012686825e-01 9.786980615171887443e-01 4.871902738735403027e-01 4.768924036781519993e-01 4.905280691368146817e-01 8.610411948865314136e-01 5.103428937941225652e-01 2.631820211214260796e-01 7.647722496082798305e-01 4.151737182634942513e-01 4.242667499880908855e-01 7.659193684014495851e-01 3.961600207515633132e-01 7.637174552519443438e-01 3.653999811126662500e-02 7.949102663945649683e-01 1.779190682510300991e-02 7.646527510544292028e-01 6.714805126706167027e-01 4.007359427681279618e-01 8.637188457000477548e-02 3.556472264631551639e-01 4.772210672181179669e-01 8.957246490843324693e-01 4.435186632712447841e-01 6.816179290470136820e-02 3.373956043411058259e-01 2.094126434880413390e-01 3.404957507678827433e-01 7.022518185216692910e-01 8.548666748987161501e-01 1.655704036583125482e-01 4.931369215616291379e-01 9.398641060968501160e-01 7.715843183528198201e-01 9.328830623798926025e-01 6.150351426283325873e-01 6.027285689070587260e-01 3.954139572646553358e-01
6.271822043432503380e-01 1.842631656862487866e-01 5.212772131005154463e-01 7.100522847433352602e-01 8.078803734419792715e-01 2.516423296466451243e-01 3.943991758240772416e-02 7.807039258071855059e-01 2.593595189758843844e-01 8.503802527541609591e-01 5.225311931120411035e-01 1.291308229447163392e-02 6.047236726195919232e-01 7.568918266860396038e-01 7.051692929815166488e-01 7.526968624169776412e-01 4.322975629046761359e-01 7.578897864372459159e-01 1.838338536572641235e-01 1.678397948705327991e-01 1.157898439950062475e-01 2.422952086824067264e-01 2.419671149378131991e-01 6.558101907098660144e-01 6.121423211264025444e-01 4.990910041314463585e-01 7.163315267667867969e-01 3.259954976740291333e-01 7.977958132439675332e-01 4.050042896499792544e-01 5.987684900218943618e-01 9.615624529438115964e-02 6.230647882220080591e-01 4.379185217921842677e-01 6.622422516403448922e-01 3.213381044972563050e-02 2.512591064459285262e-01 1.582338067968352968e-01 2.368384053445262705e-01 4.661163120330688026e-01 5.128171425493690538e-01 2.441037699197906585e-01 5.265330432481429845e-02 8.268367309485027405e-01 5.612734337299444265e-01 4.558567128015519332e-01 7.111971567301801356e-01 1.337966684131374207e-01 8.868351217174961221e-01 2.539795550695068682e-01 6.467460598879709588e-01 2.215475400435537034e-01 8.773843871436539654e-01 4.347990612674312860e-01 1.934203475222442403e-01 1.196969482376133431e-01 5.405628888290991974e-03 7.040247023005727911e-01 4.414333843194413465e-01 1.078930685490638863e-01 3.791552064727943261e-02 9.847225028831928517e-01 7.966205069658154336e-01 9.883239447967354652e-01 8.163257062372627493e-01 7.222430153987803303e-01 9.048945490731595820e-01 7.945836142879978414e-01 4.118367780981145865e-01 7.228936611491058040e-01 9.139914790904957176e-02 9.933932062108193906e-01 7.131727692369526084e-01 1.251698441433837239e-01 6.688338464704000064e-01 5.866566215500700343e-01 6.437391515227401939e-01 8.548476356277099342e-01 5.520695596651457038e-01 7.021679078920186612e-01 7.507487764293753196e-01 1.705055886687548705e-01 3.165148556751828934e-02 2.093380668610419493e-01 8.779120530431798741e-01 4.452050274236090122e-01 5.865056069487565304e-01 4.685522957149123036e-01 3.298878759924093185e-01 5.952269962256376834e-01 9.041002959279286211e-01 9.697691493836163579e-01 7.635732930166453380e-01 3.417496752879839450e-01 8.907141933278647228e-01 3.727161425764226044e-01 1.712638136044589698e-01 7.318819441305821627e-01 2.310753992806990897e-01 2.802930768488454127e-01 8.995469793469047515e-01 5.052260414804720101e-01 3.976539071019025151e-01 2.167808977373087975e-01 6.260756355688179564e-02 5.878310815244985887e-01 1.984087094482377411e-01 1.280529598882641507e-01 6.753040147167888030e-01 9.210396200141602874e-01 8.238298226709697136e-01 5.130727168441922004e-01 5.006675646292954029e-01 1.956571176979094995e-01 2.058940684389728437e-01 2.939953936419710256e-01 3.558225863443712500e-01 6.127570155019022025e-01 4.074738406495683751e-01 6.002849578743087999e-01 9.400707340317525640e-01 6.551905558567847621e-01 2.242658424086956259e-01 2.942065966574447522e-02 8.736641469217079070e-01 5.699810347148277501e-01 3.200189575828540356e-01 2.490837647950361333e-02 6.137078799686291886e-01 4.298929044132747679e-01 9.521820593621882489e-01 6.538061873138455438e-01 8.381519180198058194e-01 2.446042294411636675e-01 1.627551292122587645e-01 1.896730791171317154e-01 3.645376179747024104e-01 6.338468303455095931e-01 6.165346687806038117e-01 2.641484415336260438e-01 5.370329085054559304e-01 4.678193623136635004e-01 2.166725750906529635e-01 9.575124660023791590e-01 1.772512037883022806e-01 9.887800320069606297e-02 1.478759745538267278e-01 1.910151862200946127e-01 6.020592795664481134e-01 9.981958007035840463e-01 3.893168271951990000e-01 2.540254979291981519e-01 3.198890530222653350e-01 6.594898474696138102e-01 7.528155974661010497e-01 2.170980836636975386e-01 7.148088080267551714e-01 4.700845092664363012e-01 2.921168765163300041e-01 8.078923826767610006e-01 3.794866728861771010e-01 7.419877767005389479e-02 9.161166006961192210e-01 1.504267099829722509e-01 7.428698088090308627e-01 7.759390564386533518e-01 1.381164236329811557e-01 5.685038495354680643e-01 5.045220212940371152e-01 7.322293436817272072e-01 6.935693789256007769e-01 5.142162693355873948e-01 7.115813775596309121e-01 9.726356379150580267e-01 2.243421609752858092e-01 3.043318477189231874e-01 6.286460333228571784e-01 5.806493421098887220e-01 2.652135440797145360e-01 7.773650956455192551e-01 4.605789250461217454e-01 7.812619747423685812e-01 4.058285149247382595e-01 5.123957633498031905e-01 6.146923921976982230e-01 9.754190217670372087e-01 7.974396530876720623e-01 5.734605179398931663e-01 3.254539172218987586e-01 5.233430579306175279e-02 2.415874276671935439e-01 2.323035576755269060e-01 2.627326531898159789e-01 5.533391135999479182e-01 9.968214588845153434e-01 7.981535991453231338e-01 6.565861584192825839e-01 2.387301197756258597e-01 9.511068145533784213e-01 2.706445143503394268e-01
5.146599687144850499e-01 8.089838198828382954e-01 4.223858540887692747e-02 3.473004691701140345e-01 4.502781312155312854e-03 8.656206491314273332e-01 8.033369328551580590e-01 8.793914131265192502e-01 1.877443484611150959e-01 6.171442011900464264e-01 7.947790559871988902e-01 2.960289822727061315e-01 3.190582546437029654e-01 8.969129934996233899e-01 8.295043225001613729e-01 9.393005854408188471e-01 3.299734262570493959e-01 2.094405408375483724e-01 1.386453140264324313e-01 8.392906769573673653e-01 2.691689553756898556e-01 6.339075250771691872e-01 2.425562383046790949e-01 3.293662015887526273e-01 3.834404746084507654e-02 6.828336416453723023e-01 4.516403206283421401e-01 1.236070822998835972e-01 3.791038047777052222e-01 1.376614153631289250e-01 1.109927267551564789e-01 6.314437211469966504e-01 7.423580806702677615e-01 4.336087206226049151e-01 9.857546109918836619e-01 1.918139483571952297e-01 6.283163727633007678e-01 9.085308780663015060e-02 1.560855252421399220e-01 5.434157954995766371e-02 6.943641186689386569e-01 4.406068879171938235e-01 5.336228086571432883e-01 7.396973726860993636e-01 4.483552348590357228e-01 6.436842760252428075e-01 6.895522635947188839e-01 5.280783426425960103e-01 1.090904917559325504e-01 8.859711879471292573e-01 6.150016349762387202e-01 9.043782112575211585e-01 6.475415959571904079e-01 8.428653688319843740e-01 8.255767209505598947e-01 6.129066701561574071e-01 2.726373140499903647e-01 9.186217939582462799e-01 7.964206881909424718e-01 1.791523631185468757e-01 1.145932062085730507e-01 8.137175553108965120e-01 2.389563727480952249e-01 2.320403769919801018e-01 2.649068293940626262e-01 6.884695517852463809e-01 1.037431588166679575e-01 4.474024162471426092e-01 9.432909068206819514e-01 6.596152041777172403e-01 1.016042669102737994e-01 6.184197673079727675e-01 9.966439991852077407e-01 3.369688720187392628e-01 4.164914777236015109e-01 1.948772677887737892e-01 6.703254727128633572e-01 1.997460153252876847e-01 9.474815628803445744e-01 8.964845325476160642e-01 1.697766791315643564e-01 4.545172319677077688e-01 8.433382870322198022e-01 6.856830193109730853e-02 8.355277258493336578e-01 3.887609274452813457e-01 3.399271310802479684e-01 8.083887247706227352e-01 1.194574860687747098e-03 9.248747466515165883e-01 5.270679686618651161e-04 7.682552573349304970e-01 4.580320726041405832e-01 6.025498462622373985e-01 7.149195097043700153e-01 4.341948069563753565e-01 9.604799616521068062e-01 4.328527048068827598e-01 4.502304389428796183e-01 9.409673041124089199e-01 6.194451162951993828e-01 7.659990445367338419e-01 9.719101546927649826e-01 8.926318659400526156e-01 1.796662510512290201e-01 6.552945530639623373e-01 1.734543327247477507e-01 3.060798265768818194e-01 6.663559156593987787e-01 7.260313239415839837e-01 9.234655804051036254e-01 6.582777053887315377e-01 9.452345631927225877e-01 5.831232262130106037e-01 1.970022967361775290e-01 6.309639556333390686e-01 6.029894121163558163e-01 8.864927582954366114e-01 6.440135496295749107e-01 9.155406726771304626e-01 8.785436688561384377e-01 9.835648994852367322e-01 6.328095344821484947e-01 9.949454103347146194e-01 4.467499865447112084e-01 4.648625798361860628e-02 8.006273412680342538e-02 1.221189485835489918e-01 6.735582616919696397e-01 4.831591687720570016e-01 1.714718323664824462e-01 5.300189194910626123e-01 6.624740604805980926e-01 3.205319819424480299e-01 9.270478692132720910e-01 9.540930958732098954e-01 2.991971309058579775e-01 7.071822169011563464e-01 7.203771755385887099e-01 3.997817241319071568e-01 6.664172272129420538e-02 2.218304887423228067e-02 4.708742341973253254e-01 1.423581607143655781e-01 7.033324465796104707e-01 9.837065798626095647e-01 6.222513127544977429e-01 7.476987670205769154e-01 2.469049252630102220e-01 2.719458824636900030e-02 1.133630322415812852e-01 3.283985250426428859e-01 4.340075943218602017e-01 2.572730124445975486e-01 4.477096618646095871e-01 1.866158774847540558e-01 2.666411011113949403e-01 1.063419360951532999e-01 5.180613497384495281e-01 2.052077962067953010e-01 8.802601414147557257e-01 5.249600013148640887e-01 3.545085381420713944e-01 2.597734212946876120e-01 8.128386407902737920e-01 2.163704193025861588e-02 6.376657958886730038e-01 8.302524885883275640e-01 4.102466693079238613e-01 7.047275979368536891e-01 7.448160815759228282e-01 1.246019738443266966e-01 6.663470817377177280e-01 3.103877126769811756e-01 2.147348372654133142e-01 4.506494870857687962e-01 3.657577882686311455e-01 1.502033183152832185e-01 5.155118943155556632e-01 2.515290540942669573e-01 5.044303215850663991e-01 8.379710998888988405e-01 2.198628176107736421e-01 3.297305240678171101e-01 8.911689272190009836e-01 7.757441853947888433e-01 6.622203249545435266e-01 7.962132271444474219e-01 4.378744447517127769e-01 8.168730722347323780e-01 7.489972258563049046e-01 1.068352223832264025e-01 5.622059700656460990e-01 8.982988301831797973e-01 6.722325818071445136e-01 5.318688378959279817e-01 2.355636683318745872e-01 2.636165877131084745e-01 2.536533181223774580e-01 2.434824609638799320e-01
4.861436323765363499e-01 6.899446876274966112e-01 8.729276224181284904e-01 5.739516167442333394e-01 2.201447610556358514e-01 3.848509644966142673e-01 3.300397019418830347e-01 5.710178809654199439e-01 2.482682029448625149e-01 5.706970081488752511e-01 6.294556898664022127e-01 9.055447773810778589e-01 9.937315771243410145e-01 4.913774792616147913e-01 7.014716975732051552e-01 2.166977100776855680e-01 1.483951002211970627e-01 7.834936957853207984e-01 1.610576054845337390e-01 3.719367605204162430e-01 4.813144188671065749e-01 4.663054567520907856e-02 9.507699555467101771e-01 8.517906336812537393e-01 2.566961792301715173e-01 8.691895735929378031e-02 5.751248530898267486e-01 8.930412980090943753e-01 3.603175604886592609e-01 5.292006413564177558e-01 3.759363675022621143e-01 1.450513596810028005e-01 9.371679065576128398e-01 2.709973227338100532e-01 4.024343370787889507e-01 3.576172816097574758e-01 2.777553655305602387e-01 6.213564264535986759e-01 7.157780483017646134e-01 3.141190798003385964e-01 2.094343363280678494e-01 4.553460873620009952e-01 1.500538474552490786e-01 3.118084733871959724e-01 4.884906784390593559e-01 6.104690569152697588e-01 1.877496760310496393e-01 8.903217429701451024e-01 2.458547344137114177e-01 1.097811894955839085e-01 6.669333399188421829e-01 7.091936099874200927e-01 9.179229341374766094e-01 9.571305201280230213e-01 9.382752717599970316e-01 3.252516681317249025e-01 4.254949166303778618e-02 3.538263913635640856e-01 8.750722523406870845e-01 4.768202773561976970e-01 6.743674041256579876e-01 1.967670698337310453e-01 5.363429704818147847e-01 9.423426773020009417e-01 8.524689268210250415e-01 8.648061379399771820e-01 5.235235229636174825e-01 8.672515297954885849e-01 3.003841772020695577e-01 8.893019707066659452e-01 3.241074429958777925e-01 8.631101716560929393e-01 3.616726784360051461e-01 1.564609247834810590e-01 6.413869861618097801e-01 5.375434113263277691e-02 2.091552329274551925e-01 7.701659022435649593e-01 2.142440583146012489e-01 7.139020640531363870e-01 3.651577665601550837e-01 2.331869276227455101e-01 5.332630250445604680e-01 8.169220734286397612e-01 7.749135262846723604e-01 5.169183014948651733e-01 9.518655000408604572e-01 7.619614212128944519e-01 7.158575495372178077e-01 6.153881242099010773e-01 2.576063803072330405e-01 6.863858761450355450e-01 7.254077263573753820e-01 6.606985381862178208e-01 7.543199882253976973e-01 3.098814183498266317e-02 5.665176470139575704e-01 7.350726098887571114e-01 7.433178982939436796e-01 5.621328941261798384e-01 9.517983733886385966e-01 1.506317145351178111e-01 3.408165460990368878e-01 9.581417635632868413e-01 2.070214726220553914e-01 2.040882141800018923e-01 7.804544852751724715e-01 9.764387203310807006e-01 4.563523393066304390e-02 5.669198426535818625e-01 2.469771302097583110e-01 5.965902302073815555e-01 1.713870872961384961e-01 2.211017086549652566e-01 7.506342187597676574e-01 3.543828081139542840e-01 7.258257677434237776e-01 6.431445142367703260e-01 4.892945010835626496e-01 7.163534867598085887e-01 5.648625151734509853e-01 6.998126254638992183e-01 1.581181129753865822e-01 8.400414256891298725e-01 1.868829212691375252e-01 4.814089415889380996e-01 3.499335257694454748e-01 1.631272898427305051e-02 2.447405754711419190e-01 2.050281030874622212e-01 8.712553343247677606e-01 7.675765615554596133e-01 5.570946253173991725e-02 5.672349394948377199e-01 1.776825066877051329e-01 3.323786122857123049e-01 4.587714828586075821e-02 2.742248423966154869e-01 4.401878463691343280e-01 3.422548846793600497e-01 6.790676977895560018e-02 9.168009608874205796e-01 7.921726572947347389e-01 6.365543100314114966e-01 9.624297019312310075e-01 8.016652821617490376e-01 5.020361768158431159e-01 8.017231577521315433e-01 1.197412621099627206e-01 5.713014733959077551e-01 7.256933834718616305e-01 8.651691802161098899e-02 6.448812611289097552e-01 2.757555448155335487e-02 5.796473147340214238e-01 3.523503261684590715e-02 7.862990807331292631e-01 1.002026533227602378e-01 9.365370330828095558e-01 1.618782710829549387e-01 4.182759530230037992e-01 3.015849232295709781e-01 3.008045021242774508e-01 7.854252034803578253e-01 3.844704680953351383e-01 3.007030699505297555e-01 9.632119310011206803e-01 8.370686837678205094e-01 5.976491585716635635e-01 1.594576734896202552e-01 3.375771620785560367e-01 3.417602941936004335e-02 7.064025377092842950e-01 1.483018624194479829e-01 1.073588949055330755e-01 1.385959551956755798e-01 1.127097276819154503e-01 3.869136345262051968e-01 5.902404267071115207e-01 2.582047156332092364e-01 2.152208832348416756e-01 8.148072043690118837e-01 8.698659208742055560e-01 9.315520724147410281e-01 8.863699150752218925e-01 2.072042426697895401e-03 1.490519993522921860e-01 2.390620325943396685e-01 4.697345901958183134e-01 5.193069401591358103e-01 4.193710650829723940e-01 2.226565868648103796e-01 9.701962509068882134e-01 1.196776568226679549e-01 7.601826569188108174e-02 1.040413296626707673e-01 2.792254607124626808e-01 5.975697877041825645e-01 1.132721556905738058e-01 8.841697803736752181e-01
4.140780997791043694e-01 4.240459655850278287e-01 3.002430371592768044e-01 2.367292320944160977e-01 1.921418119889106713e-03 6.489054537936089773e-02 6.339108346079589396e-01 8.887548783280639908e-01 4.741357857580799084e-01 4.029505837876767860e-02 8.666049018925888747e-01 1.325512418507086565e-01 2.859824104314883098e-01 6.992441047032257329e-01 3.190843500079160178e-01 1.948649373096198456e-01 2.404091867411303207e-01 2.724720487729737073e-02 3.903976547395073826e-01 3.564257475307112122e-01 3.959800607703304332e-01 4.024952471423057787e-01 6.907718828127711319e-01 9.204350922077775277e-02 1.665462563207014135e-01 9.718792016952796375e-01 3.121617394247203636e-01 2.600052514323126784e-01 4.632674048759576335e-01 6.620084147866075464e-01 6.533132212459389354e-01 2.547808732114890118e-01 2.413618703977464808e-01 9.111495327221086349e-01 3.475061233083717172e-01 8.986625066066663559e-01 5.733053935124592382e-01 5.926497745965182418e-01 6.259077543039752722e-01 2.586378839536682683e-01 7.021373018262728749e-01 5.758771438057027625e-01 2.199197813768953846e-01 5.279598466719689354e-01 9.409241566130369661e-01 2.255229892410993697e-01 5.182441768429896234e-01 9.922669646898872875e-01 1.730287276550225295e-01 2.374754409847722458e-01 4.657041565858626164e-01 2.530176153198763211e-01 2.014240349136298125e-02 6.107050145743222469e-01 4.730416437782236638e-01 4.555393797569000647e-01 4.140904310501808405e-01 4.949258099013230661e-01 5.935646909879882527e-01 4.859826343632994705e-01 9.828815765749701061e-01 4.255242508800403112e-01 1.702019148555742323e-01 8.927562537229145612e-01 3.711252900418829936e-01 6.246886966565681210e-01 9.402290401753781168e-01 1.529419774337419380e-01 2.729510857970647297e-01 4.374302590143590574e-01 3.635012054619825017e-01 6.035720673520708068e-01 9.056792103697609564e-01 2.961927708099212353e-01 1.776647514673849182e-01 7.088766083037807419e-01 4.208230215103409000e-01 2.033089116949027275e-01 9.065186455230345164e-01 8.689473507114184869e-01 6.414197200061007020e-01 4.945166393141989802e-01 9.392747366433411571e-01 9.183167921332661132e-01 7.210674268033948620e-01 3.605489496209866029e-01 6.565985725499420278e-01 4.596865295980662180e-01 7.692587340597901724e-01 1.483130870124128586e-01 8.164971811809346169e-01 4.981748655799022041e-01 6.690784027558071001e-01 2.636114843901304905e-02 4.883286274112127456e-01 3.699245044276253669e-01 1.756358641635820117e-01 8.582614972982430812e-01 8.215475648580685686e-01 1.739431641519662008e-01 4.206810178548946455e-01 2.210913336236204341e-01 1.676627680850252267e-01 5.829913868471073846e-01 8.509411561036892557e-01 3.437596581462676326e-01 3.582317148856754008e-01 4.062543838869245860e-01 3.304649620374655594e-02 9.885121958123992414e-01 8.877711678812794105e-02 8.650117596691806465e-01 8.578203559964514557e-01 8.139599880149417377e-01 6.030427786475311969e-02 7.928022142905749581e-01 9.489068555626338775e-01 4.181619339563800164e-01 6.656550106712296744e-01 6.003154011287855640e-01 8.436602947428599730e-01 9.896969639957577947e-01 1.753562054960005057e-01 5.735165279636613711e-01 5.528451843059055681e-01 7.742172595264955604e-01 2.861922000161678525e-01 2.488674475114591722e-01 6.158477540580888920e-01 5.165110666298866615e-02 7.310935513686566134e-01 5.239025873262855848e-01 4.872064414155357071e-01 6.835888888948425945e-01 6.391103259843086137e-01 2.873562920135651622e-01 4.181638790618711354e-01 7.457825704223082219e-01 9.502517189223038674e-01 6.046946916397826222e-01 4.386521326614306604e-01 7.462027496506952184e-01 4.328341985386272572e-01 8.149631767467185872e-01 9.381823984258730320e-02 3.649522329299317303e-01 1.829733666446714535e-01 7.135228173169141375e-01 1.196047915140669993e-01 5.666798728696914589e-01 9.394411922586343167e-01 8.357826862701799309e-01 5.723301475777746727e-01 9.781211884726553896e-01 8.312511380373773795e-01 8.743910453474033062e-01 8.078084762082357040e-01 3.984848775789631148e-01 3.273853243373592292e-01 7.316786831327659613e-02 2.296891540915240171e-01 3.041400837278838143e-01 5.119710433853822407e-01 6.031222216192899666e-02 7.333032970540933615e-01 5.785686861565508821e-02 9.076855978620455012e-01 8.600014522887652335e-01 6.621011461449707314e-01 2.758754603418578366e-01 9.402618269499805059e-01 1.566787121062168664e-01 4.261505330256074586e-01 8.407480770268287440e-01 5.905598869969641562e-01 2.490786503207221836e-01 5.002243517105073867e-01 7.867884977932190216e-01 4.259280255490452971e-01 4.105062856287620132e-01 2.462040889019905254e-01 6.634447122853749379e-01 2.444774400390321567e-01 5.563986818807694634e-01 7.210114222044463617e-01 7.482189491232752454e-01 7.843608574401339517e-01 9.889146559566563965e-01 8.899350703731340184e-01 6.188040235748568652e-01 3.924511488815883853e-01 6.430517143025328286e-01 9.285138987065770788e-01 2.201745470274624195e-01 8.815619282569042703e-02 8.042210213963330023e-02 5.422777895770399814e-01 2.616368369557076079e-02 7.030901319160675067e-01 4.184305090552731254e-02
6.506098717503309148e-01 5.326701818105825659e-01 9.677455251661999380e-01 8.065693238680043953e-01 5.152595088933259460e-01 2.457344788387272327e-02 4.774928314810731322e-01 9.579494278162071774e-01 8.659683623685101583e-01 4.846649641056446356e-01 9.774730015802540750e-01 1.870167388326802183e-01 9.647268220402742678e-01 4.038317947663572216e-02 1.443096934984549051e-01 9.489674040463376148e-01 3.056477823571566166e-01 3.409631072404797347e-01 2.595859355967744531e-01 1.988247666767983812e-02 1.740399598805849601e-01 8.156122356891991609e-01 5.989362011146787124e-01 1.834827944449650694e-01 2.787596526816087383e-01 2.929655571861644603e-03 5.553405303956672201e-01 8.399762087223402451e-01 7.737939957409132319e-01 7.628891269933886221e-01 4.894142538990704505e-01 3.819401640288412336e-01 1.906482109910279110e-02 7.279736643471492741e-01 3.143319036705101155e-01 9.246808424774659585e-01 5.105502572353148860e-02 2.700897249310784121e-01 9.091886431079154729e-01 1.950555020233755155e-01 2.237152831835965694e-01 1.932272743682316163e-01 9.886323712245604911e-01 2.895672360880682250e-01 6.607795445744455431e-01 3.382461419176385764e-01 2.538754082697590730e-01 3.576489585078450606e-01 7.507584985638210417e-01 5.600884646018330359e-01 1.883612525199280796e-01 9.160274375080315057e-01 7.363754263635563513e-01 8.367299814883502052e-01 6.143468917197596468e-01 8.142340500368229206e-01 4.879065796887926965e-02 1.310149965092103352e-01 2.664361934252438280e-01 6.247019637877453402e-01 8.034249536372068956e-01 9.017782297940027947e-01 5.269894881223883276e-01 3.433131424384497921e-01 8.542885147726917427e-01 7.226496012061162100e-01 1.469345019008261310e-01 9.921083369526734197e-01 3.121220198913655652e-01 4.028867617392580813e-01 2.183502757262404392e-01 5.786265093835465390e-01 8.251547803004388726e-01 4.942452142598188214e-01 4.086138529305519684e-01 3.368688581713314978e-01 2.512887289537835134e-02 6.235038957912059088e-01 1.020889529094041182e-01 4.895275425894644039e-01 1.940271591484266089e-02 9.385317557382750753e-01 5.256653009037584035e-01 3.048472099628529719e-01 3.276578070668129117e-01 5.512426106614094490e-01 2.670099901409949128e-01 2.415792893719014289e-01 7.910709727492695187e-01 9.378198831465550667e-01 8.267761079095664600e-01 2.829703557198481878e-01 9.552758589580865323e-01 4.678292455987839160e-01 8.604161291575594950e-01 1.036457032994225758e-01 6.787922775895828265e-01 8.982515414218051886e-01 9.258588757214581966e-01 6.582436808444944720e-01 7.901243558515776977e-01 8.871996884836186315e-02 7.822017373375304006e-01 6.620267661323402386e-01 1.312609802658253333e-01 8.896973361738083064e-01 4.424837981378259011e-01 2.883878979557449318e-01 1.827775056139175902e-01 5.046310669214447708e-01 9.018123073284767255e-01 2.640775523477303377e-01 9.841995495230515534e-01 2.776315156008551943e-01 8.719954125076856410e-02 6.504378220540327771e-01 5.843653797714609688e-01 3.044591460228327495e-01 9.994209902027854087e-01 7.198813602817599744e-01 7.940100280301185531e-01 1.769762428018029077e-01 3.167749183598567164e-01 3.978023944041919613e-01 7.531372998479380909e-01 7.738577113779355754e-01 7.074595259312416173e-01 1.282984831282363292e-01 5.581931965127326922e-01 1.859232920771836106e-01 9.606938157928694988e-01 7.361197342631987661e-01 1.520545848528787047e-02 9.462984955887432381e-01 9.286819347390781187e-01 5.066240428697412757e-01 2.702377615315967319e-01 9.559888199379845686e-01 3.993784227646830498e-01 6.636887559432000927e-01 4.010019856165557561e-01 8.536071583142644803e-01 1.682900055795666372e-01 8.615292468893626099e-01 7.419450402253731092e-01 6.214088206978533035e-01 9.232002860192108917e-01 6.285669276402930938e-01 8.500828930448832699e-01 6.153178671028549651e-01 5.675285608213019861e-01 2.100939378382035150e-01 1.027353858194054448e-01 5.759488936424078664e-01 3.660962790274325807e-01 3.471826356495260057e-01 9.245439716604959557e-01 1.456160097794910735e-01 1.844602828705105280e-01 2.430648763892536701e-01 3.166734438709963850e-01 4.951397750492890770e-01 8.219444623203422395e-01 4.623053569879429503e-01 2.104622575925848560e-01 9.708234472353107769e-01 3.164357644156358118e-01 8.229121328895064869e-01 9.010310567383233993e-01 8.846604465188515620e-01 7.380645013062610005e-01 5.836992891925120164e-01 2.163589565568244666e-01 8.734052084926621218e-01 3.652065339541011868e-01 2.883826576922354779e-02 1.762408266253241429e-01 7.367903726921843921e-01 6.143683253200593608e-02 4.703520757714113598e-01 8.539515261542828251e-01 6.287389133427910837e-01 9.911632229786000448e-01 1.669019363396184730e-02 4.282440922447272591e-01 6.688377777944328750e-01 2.723937430736868004e-01 4.220886879785401558e-01 4.717637248577415399e-01 3.695699715079598935e-01 3.065787733444602647e-01 9.690077582044999138e-01 5.289434191923684248e-01 6.014048657881965187e-01 8.694360880368480204e-01 9.393751239378413942e-01 7.112252489364979668e-01 7.627714320674169324e-01 9.983848507146855233e-01 7.247888394745694018e-02
3.290604547512565592e-02 1.371537051152804665e-01 9.963743217872026436e-01 4.876317840595575381e-01 4.356699018063759921e-01 9.171874486857777287e-01 4.816347653740856716e-01 7.405616188529485777e-01 8.311738589118541354e-01 2.749423239401806995e-01 6.141781753061221760e-01 1.901988047970915030e-02 8.955945287225615115e-01 4.007519929210332510e-01 1.096099609441234524e-01 1.642457712273951431e-01 9.366388089234113368e-01 2.976438051691779885e-01 7.150908104089913619e-01 3.912090876640749171e-01 9.769691339339825475e-01 2.245732116761700592e-01 3.564705851010682158e-01 6.661657233552038537e-01 3.662037972758632742e-01 2.005150752110911316e-01 3.345301374297822150e-01 2.993961172511235835e-01 2.164193491256148905e-01 7.693315499605686281e-01 1.394643792556271578e-03 9.105661366761113040e-01 2.176325344500448233e-01 3.443715551577709588e-01 3.410050669380469968e-01 5.252645625314694700e-01 5.932714635430750283e-01 7.627277066369598790e-01 2.080257137446349658e-01 1.063452352462571637e-01 6.375767926497798443e-01 5.945172042073431085e-01 6.643705467890470562e-01 3.049935978634560341e-01 6.353578470829390756e-02 9.879503756167784534e-01 3.863965675307994285e-01 9.543298257730890022e-01 3.323379495219043189e-01 8.555271288675718733e-01 1.373415682229675028e-01 1.985306770894409434e-01 5.737997320764531839e-01 3.860285307943551736e-01 1.197924046495431050e-01 4.592468879448531327e-01 8.567197051811158426e-01 5.088494393978900687e-01 4.960473605825920229e-01 1.246564975780557472e-01 6.530892951399305257e-01 8.583325179623816359e-01 3.212713954795872739e-01 8.513525262166966590e-01 1.368454797262186329e-02 6.595508005728289991e-02 6.719073135416244735e-01 8.875410787545068292e-01 3.657859292154416186e-01 6.032767979741625597e-01 3.802156825057302347e-01 8.682950116126079143e-01 6.234124352213125109e-01 4.506121485190718312e-01 4.070446762174896316e-01 6.119467606063833109e-01 4.237077948732138610e-01 6.860278065018379223e-01 7.764980310870452929e-01 9.818023512549821641e-01 3.684862748747828043e-01 7.143570648007760981e-01 8.492435290187096975e-01 5.295067156028768762e-01 6.341475860118940266e-01 5.899676352262697154e-01 3.782135633860098656e-01 8.097207707316584901e-01 5.220423471231496748e-01 1.458071326975882709e-01 5.906148239059612060e-01 8.512963691231922869e-02 1.148773356256871381e-02 6.224102812367287019e-01 7.120156028751563060e-01 3.759306883669943922e-02 8.396424791831195167e-01 9.944279488426478464e-01 4.070122471314300272e-01 7.242989428220795167e-01 4.345423291279960631e-01 3.741830195297405348e-01 4.802417718119763590e-01 3.770460492406813025e-03 4.667056176412184287e-01 6.578956673373290709e-01 7.949258486659487311e-01 8.732590207622433764e-01 1.125363396846270625e-01 2.483378756941926335e-01 6.973272191392697605e-01 8.767198900907007264e-01 2.615815956011078303e-01 5.978243647181626930e-01 9.864481995039031670e-01 5.698942473689552202e-01 5.426306077423226348e-02 9.504800862340390122e-02 4.710771764711729759e-02 3.553076775856732761e-01 2.919940214914836796e-01 2.120207432732152952e-01 8.330028370077847688e-01 8.760402948755708907e-01 7.646836870109986473e-01 3.536291259185785352e-01 5.537052279984676639e-01 1.336310834945882986e-01 3.439910539355204300e-01 5.124031661537280513e-01 9.117409868252683847e-01 6.026316948230303616e-03 4.142479237680375403e-01 5.332020333413417523e-01 6.247917103547576678e-01 3.019315247576136452e-01 1.154041920851767156e-02 6.154388329247240108e-02 6.231557645127461242e-02 9.006966724348762776e-01 3.515197578997171224e-01 5.875784600957233428e-01 5.643510966265381512e-01 8.804399446939984442e-01 6.238807883173403956e-01 4.328645051080131090e-01 5.922231455191214744e-01 6.993092566254175413e-01 1.072967981170828144e-01 6.669391054024379484e-01 5.676689388925081348e-01 5.695497465518584157e-01 5.612563697701042909e-01 6.168394426268642983e-01 2.721798628203209169e-01 6.730513064502516851e-01 5.906023709646218700e-01 7.398213877600473554e-01 2.186625445448473481e-01 2.406453727822639443e-01 8.242408769676671243e-01 4.483896440184890198e-01 6.154776681829395857e-01 7.445549955432467781e-01 4.813961542718872000e-01 4.965063102836623221e-01 2.683829964520022537e-01 8.693785114026624239e-01 2.876416890036130880e-01 9.124801835765070646e-01 4.929924074987638294e-01 1.027920151114761760e-01 6.516922638708224635e-01 3.982784967096271167e-01 1.376652041095838275e-02 7.774332315309613328e-01 6.211462633721887006e-02 4.914158104462285070e-01 4.552086156867074518e-02 8.222055668477301626e-01 2.063726825269110998e-01 8.206786139530242163e-02 5.291020137228575893e-01 4.018752525231968908e-01 4.093831362797083484e-01 1.310591445877751227e-01 3.096489391490980791e-01 5.102568617577960541e-01 2.021641056454862584e-01 4.634166218137487636e-01 3.884582834939384055e-01 3.093167567874932633e-01 6.651529537944047554e-01 2.577288745848013152e-01 1.400429045615616541e-01 2.246847203582025276e-02 3.758811486902777776e-01 1.234030073309041464e-01 7.313542126347536421e-01 1.042719870077361000e-01
7.819012668170643998e-01 2.551511709291184316e-01 4.614338637534187715e-01 8.324413514413184778e-01 6.444619552910330063e-01 7.581570927479043265e-01 6.594522306838590531e-02 4.120286685896679124e-01 4.154510978978399605e-01 6.121037942697787892e-01 1.318154421360784312e-02 2.268672315361056624e-01 3.379621184236193399e-01 2.808999040586463991e-01 4.417604662774403668e-01 3.627983049103291613e-01 9.024435343209069593e-01 3.959633638948665268e-01 8.728902032426728574e-01 6.110438286772429395e-01 9.117874255722381305e-01 9.024109721864029821e-01 7.669373168085706904e-01 6.029897906466764601e-01 1.236395786502275662e-01 6.324505637443521566e-01 9.787717221996062866e-01 4.936642757004446880e-01 3.502076198410044583e-01 1.215056124362005052e-01 8.218093675046856950e-01 1.546369069718014355e-01 8.800091852796785297e-01 5.175675694799405369e-01 8.612814680692281177e-01 9.686636219788329338e-01 7.554965882162562041e-01 8.720132258033685968e-01 6.083670876107927228e-02 2.980202496832757841e-01 2.107737939259139992e-01 6.174312895886714392e-01 1.191130371614846917e-01 7.247351619031663361e-01 6.480754621406865645e-01 8.169692050180532572e-01 5.687815705601222405e-01 1.295571843380428634e-01 7.434603176682301751e-01 5.112970088535335744e-01 2.254116710364320042e-01 6.215631782312103226e-01 2.869601324089909866e-02 8.687772039824576131e-01 8.249152232554507469e-01 7.780228584887268761e-01 4.840712760915809598e-01 9.805736511363288832e-01 8.777075023759354222e-01 8.384213589299360780e-01 8.491981030696873489e-01 6.519427172902413359e-01 4.609368538396203530e-01 3.349911312111065742e-01 4.117948691842470144e-01 4.665479802776897333e-01 4.246439546911542351e-01 7.472218832370778330e-01 5.423624471175995110e-01 8.028943055096648962e-02 8.339954322275718868e-01 2.624508149241868704e-01 9.393989765089690858e-01 3.749207831777086053e-01 4.467283181369740008e-01 4.390433428230494650e-01 7.791546451609493440e-01 8.943056647237794810e-01 9.846354489222157724e-01 7.509603223586459597e-01 8.929685729775472813e-01 7.555475085202714158e-01 3.841938370360620247e-03 9.001272346434359140e-01 5.128021954103663127e-01 3.710172272565992468e-02 3.557896810457302772e-01 2.925914622241417851e-01 5.440959730783149206e-01 3.615024517339132659e-01 8.806662276782606380e-01 1.006071005028116305e-01 9.571268058293812553e-01 5.733435028117939147e-02 8.922682934628211049e-01 6.734834074833909723e-01 4.855569358982236849e-03 6.354351209781893273e-01 5.183229391506452011e-01 2.891753654173764287e-01 9.011817273883828694e-01 2.858949952366692804e-01 6.987466343537930280e-01 5.425069923158768459e-01 5.075529020275496572e-01 9.928424747298708608e-01 5.898847548471939373e-01 8.646057069391586136e-01 8.017049827565982945e-01 9.381166407882776115e-01 9.849664802304531896e-01 5.820376951090007189e-01 9.228670123332733954e-01 4.715427127109754757e-01 7.012091408799370207e-01 7.596148234331406845e-01 3.851366584577738950e-01 5.613626618660040313e-01 9.169984643756607934e-01 2.512659480073620166e-02 6.826732695876704948e-01 1.771765743495852252e-01 4.609000455856748779e-01 1.090182547956655146e-01 6.997370268314095920e-02 5.861545949175737125e-01 5.319180659084984386e-01 2.388091321061699412e-01 5.476215581642687180e-01 6.219611659670470916e-01 1.477293067581517683e-01 5.989952048049623778e-01 1.005411389647037357e-01 2.540585152446166450e-01 4.035173377721914534e-01 3.069839251416144332e-01 1.368441707656253836e-02 4.690397368466785455e-01 3.796980154282616482e-01 6.493505297993814596e-01 6.512467524682817865e-01 8.541485803561393864e-01 1.694708114923551001e-01 3.948879998335154129e-01 4.953962570500042295e-01 8.985626609946510968e-01 8.983793912240931601e-01 9.982534521683694706e-01 6.319297956849243558e-01 9.125224497001458435e-01 8.758716479466316374e-01 9.761040051616980406e-01 1.192423444301268232e-01 9.268511835197190685e-01 7.454002528400510696e-01 3.799999586646065630e-01 9.781428878245072012e-01 3.148620588257355912e-02 4.324062638438879169e-01 6.189392688393361430e-01 5.236706762980271046e-01 2.778878494632573970e-01 7.342757381998482602e-01 5.402905307694528814e-01 3.285889907751943229e-01 3.118312107157460433e-01 2.835395081438588649e-01 9.229759123660732367e-01 3.411376977389390941e-01 6.791818667987220559e-01 3.868697305231980632e-01 8.967934054914230568e-01 3.157384128278912794e-01 3.312084455262009897e-02 1.923028254859756592e-01 2.170242431661182358e-01 8.138134299014246897e-01 7.868796879297593749e-01 4.519482095508238206e-01 8.672135046126768776e-01 1.168774234098757248e-01 3.718447188849922647e-01 8.615521195189919101e-01 4.707083294047603728e-01 8.338639260009098608e-01 9.831317879689078776e-01 1.371626388867638324e-01 7.179716708016987692e-01 8.097322101560463503e-01 4.888544941258786691e-01 5.057755616630505990e-01 8.063907053251027079e-01 4.519311461158724841e-01 7.002372908948752972e-01 7.235196673362364050e-01 9.321950522949549178e-01 3.716454362388943444e-02 6.681193474829215662e-01 1.088888161699580470e-01 4.629255194213659497e-01
3.341483111597447486e-01 9.503449104060047725e-01 6.829364017038082046e-01 8.924144038527185296e-01 8.559010818949802646e-01 4.128627116295896515e-01 6.875329262092854110e-01 9.117272572276808873e-01 1.104645618038808674e-01 8.835860829045651954e-01 7.707386274396410553e-02 5.000260429624927561e-01 6.398625490191325316e-01 7.588936042086499301e-01 7.807314410174294173e-01 8.236152530530688187e-01 6.387332671369387871e-01 6.249448164280642093e-01 6.184383165036090313e-01 9.067775251464991193e-01 1.832753280430496901e-01 2.074422679621605869e-01 8.605100936312606308e-01 2.674902550689194358e-01 5.116318090441563937e-01 7.576374644721978191e-01 6.584259949488990848e-02 7.930350772432215312e-02 5.277163547640844055e-01 4.881170167412104410e-01 2.300032806919095618e-01 4.907608392785509643e-01 1.964576636459186565e-01 2.039058320196330820e-01 7.742775603554155062e-01 2.556650763806882498e-01 5.619259625727442975e-01 9.875329425730431376e-01 4.189263230898431223e-01 7.270353810877205891e-01 8.193635337697168231e-01 9.061346338517040078e-01 6.770400227337181054e-02 8.247337959860715495e-01 9.165367218468507549e-01 2.387385243091155740e-02 9.286210088106687799e-01 5.571491304354142526e-01 4.165267321734819062e-01 8.223963376723971708e-01 6.766774570721059145e-01 1.342999465322818331e-01 2.306502188328337644e-01 1.326653809892820446e-01 3.140751462793851534e-01 5.015944558671249220e-01 9.647630645579322595e-01 5.894184316948842817e-01 6.010747308683045409e-01 4.281999644053682275e-01 7.196865975434555418e-01 8.533243431992332262e-01 9.093694845711638441e-01 7.333330172658274471e-01 4.241351332267350172e-01 7.920438364756280381e-01 5.863187182432606503e-01 3.986066786732935796e-01 4.045665728299285835e-01 6.899137872096250401e-02 9.296721478967853169e-01 7.678710753550899160e-01 8.564273595213214296e-01 1.879361373414256686e-02 8.614831957509367921e-01 1.781176166004616590e-02 8.783336527546489192e-01 8.912391995779049836e-01 7.867075387659105967e-01 8.159138189852215284e-01 8.947807996520290574e-01 3.331913443123452057e-01 8.199014814069338630e-01 9.012170693178866987e-01 4.648361528354234551e-01 6.881759201757220445e-02 1.582499119318773184e-01 1.186444735790547211e-01 8.997498293824056637e-01 5.893389899388695730e-01 7.739202910459543894e-01 1.879939991000406652e-01 9.537858650473870492e-01 4.584881515279140007e-01 8.921884076419346332e-01 7.676083523455330404e-01 2.420079135001358406e-01 4.761493163362143788e-01 6.711558770304837385e-01 3.109452606173253031e-01 1.960310136784934043e-01 9.137369443404927960e-01 1.886932527153515338e-01 8.435531406078549121e-01 5.583721919097767161e-01 8.262476119874667679e-01 5.614599222103922038e-01 1.948545132978543037e-01 4.932734194766807967e-02 5.915068867666363195e-01 4.835186713382199075e-01 2.445572162600226918e-01 9.140897595495799388e-01 3.909842302064078234e-01 9.144917674586334755e-01 6.011517621228751329e-01 3.263692409126501826e-01 6.818936945822561269e-01 4.470619753761456705e-01 8.120457001949843434e-01 3.869154258539043711e-01 6.908518322077416007e-01 8.675433618594146079e-01 2.494274900549060536e-01 3.107234043806127444e-01 6.903483071607571242e-01 9.585237406332219878e-01 2.218079757493399695e-01 6.752461103891527205e-02 2.630781427081283486e-01 8.298421278663016265e-01 5.269332051969632946e-02 1.010742716407159181e-01 5.645386220954436984e-01 7.356609673323588616e-02 1.635248574717855785e-01 9.121469150822314464e-02 6.349194926260240956e-01 8.338657452357900457e-01 6.820412670602442606e-01 1.312711500790088026e-01 3.102077947354217047e-01 3.591991396543181558e-02 9.262176716851866498e-02 7.635728761400980558e-01 7.633478725118306718e-01 5.503161321716135701e-01 7.212295648967536055e-01 8.521724599459865601e-01 5.666708870522618735e-01 2.415372822766814753e-02 6.469216940229614021e-01 1.335266345341512562e-01 8.175123495008683738e-01 2.969071797867633977e-01 5.615394330350722552e-01 4.939902968361563618e-01 3.805844490669183511e-01 3.345150925222067917e-01 6.134013294684684814e-01 4.039256253324637891e-01 1.181277239146049096e-01 9.244035469380391667e-01 9.091694851538838495e-01 3.589375238837038129e-01 6.071656780445026103e-01 2.389672221409995245e-01 2.667377317063185371e-01 6.213490722393260057e-01 7.971678617486630536e-01 4.659819360360278884e-01 4.304447943841303026e-01 7.946613821785475373e-02 7.169888674403278594e-01 3.837007659908180379e-01 5.585323461875231210e-01 3.077197839364543830e-01 3.570658143749385616e-01 2.268286162640190673e-01 2.757584397330904435e-01 8.665492670277668008e-01 7.698898100484646845e-01 4.117348520110245547e-01 3.895109288439930761e-01 5.535994707402848158e-01 2.178714799155586634e-01 3.480085099842175067e-01 9.382302588401194576e-01 3.910781714192256286e-01 9.068390498561118562e-02 7.955830820499567579e-01 4.330173285635741109e-01 5.556661983587295461e-01 7.205368629781361278e-02 4.788562051572214928e-01 9.387157929871645656e-01 8.606664020276880711e-01 3.504512893501338100e-01 6.151140981458004253e-01 9.032820372154417576e-01
