# # time,tag,mass,x,y,z,vx,vy,vz,ax,ay,az,EK,U
# # s,,kg,m,m,m,m/s,m/s,m/s,m/s^2,m/s^2,m/s^2,kg*m^2/s^2,kg*m^2/s^2
# # 0.0
# 
0.000000000000000000e+00 1.000000000000000000e+00 2.000000000000000000e+00 3.000000000000000000e+00 4.000000000000000000e+00 5.000000000000000000e+00 6.000000000000000000e+00 7.000000000000000000e+00 8.000000000000000000e+00 9.000000000000000000e+00 1.000000000000000000e+01 1.100000000000000000e+01 1.200000000000000000e+01 1.300000000000000000e+01 1.400000000000000000e+01 1.500000000000000000e+01 1.600000000000000000e+01 1.700000000000000000e+01 1.800000000000000000e+01 1.900000000000000000e+01 2.000000000000000000e+01 2.100000000000000000e+01 2.200000000000000000e+01 2.300000000000000000e+01 2.400000000000000000e+01 2.500000000000000000e+01 2.600000000000000000e+01 2.700000000000000000e+01 2.800000000000000000e+01 2.900000000000000000e+01 3.000000000000000000e+01 3.100000000000000000e+01 3.200000000000000000e+01 3.300000000000000000e+01 3.400000000000000000e+01 3.500000000000000000e+01 3.600000000000000000e+01 3.700000000000000000e+01 3.800000000000000000e+01 3.900000000000000000e+01 4.000000000000000000e+01 4.100000000000000000e+01 4.200000000000000000e+01 4.300000000000000000e+01 4.400000000000000000e+01 4.500000000000000000e+01 4.600000000000000000e+01 4.700000000000000000e+01 4.800000000000000000e+01 4.900000000000000000e+01 5.000000000000000000e+01 5.100000000000000000e+01 5.200000000000000000e+01 5.300000000000000000e+01 5.400000000000000000e+01 5.500000000000000000e+01 5.600000000000000000e+01 5.700000000000000000e+01 5.800000000000000000e+01 5.900000000000000000e+01 6.000000000000000000e+01 6.100000000000000000e+01 6.200000000000000000e+01 6.300000000000000000e+01 6.400000000000000000e+01 6.500000000000000000e+01 6.600000000000000000e+01 6.700000000000000000e+01 6.800000000000000000e+01 6.900000000000000000e+01 7.000000000000000000e+01 7.100000000000000000e+01 7.200000000000000000e+01 7.300000000000000000e+01 7.400000000000000000e+01 7.500000000000000000e+01 7.600000000000000000e+01 7.700000000000000000e+01 7.800000000000000000e+01 7.900000000000000000e+01 8.000000000000000000e+01 8.100000000000000000e+01 8.200000000000000000e+01 8.300000000000000000e+01 8.400000000000000000e+01 8.500000000000000000e+01 8.600000000000000000e+01 8.700000000000000000e+01 8.800000000000000000e+01 8.900000000000000000e+01 9.000000000000000000e+01 9.100000000000000000e+01 9.200000000000000000e+01 9.300000000000000000e+01 9.400000000000000000e+01 9.500000000000000000e+01 9.600000000000000000e+01 9.700000000000000000e+01 9.800000000000000000e+01 9.900000000000000000e+01 1.000000000000000000e+02 1.010000000000000000e+02 1.020000000000000000e+02 1.030000000000000000e+02 1.040000000000000000e+02 1.050000000000000000e+02 1.060000000000000000e+02 1.070000000000000000e+02 1.080000000000000000e+02 1.090000000000000000e+02 1.100000000000000000e+02 1.110000000000000000e+02 1.120000000000000000e+02 1.130000000000000000e+02 1.140000000000000000e+02 1.150000000000000000e+02 1.160000000000000000e+02 1.170000000000000000e+02 1.180000000000000000e+02 1.190000000000000000e+02
1.000000000000000000e+00 1.000000000000000000e+00 1.000000000000000000e+00 1.000000000000000000e+00 1.000000000000000000e+00 1.000000000000000000e+00 1.000000000000000000e+00 1.000000000000000000e+00 1.000000000000000000e+00 1.000000000000000000e+00 1.000000000000000000e+00 1.000000000000000000e+00 1.000000000000000000e+00 1.000000000000000000e+00 1.000000000000000000e+00 1.000000000000000000e+00 1.000000000000000000e+00 1.000000000000000000e+00 1.000000000000000000e+00 1.000000000000000000e+00 1.000000000000000000e+00 1.000000000000000000e+00 1.000000000000000000e+00 1.000000000000000000e+00 1.000000000000000000e+00 1.000000000000000000e+00 1.000000000000000000e+00 1.000000000000000000e+00 1.000000000000000000e+00 1.000000000000000000e+00 1.000000000000000000e+00 1.000000000000000000e+00 1.000000000000000000e+00 1.000000000000000000e+00 1.000000000000000000e+00 1.000000000000000000e+00 1.000000000000000000e+00 1.000000000000000000e+00 1.000000000000000000e+00 1.000000000000000000e+00 1.000000000000000000e+00 1.000000000000000000e+00 1.000000000000000000e+00 1.000000000000000000e+00 1.000000000000000000e+00 1.000000000000000000e+00 1.000000000000000000e+00 1.000000000000000000e+00 1.000000000000000000e+00 1.000000000000000000e+00 1.000000000000000000e+00 1.000000000000000000e+00 1.000000000000000000e+00 1.000000000000000000e+00 1.000000000000000000e+00 1.000000000000000000e+00 1.000000000000000000e+00 1.000000000000000000e+00 1.000000000000000000e+00 1.000000000000000000e+00 1.000000000000000000e+00 1.000000000000000000e+00 1.000000000000000000e+00 1.000000000000000000e+00 1.000000000000000000e+00 1.000000000000000000e+00 1.000000000000000000e+00 1.000000000000000000e+00 1.000000000000000000e+00 1.000000000000000000e+00 1.000000000000000000e+00 1.000000000000000000e+00 1.000000000000000000e+00 1.000000000000000000e+00 1.000000000000000000e+00 1.000000000000000000e+00 1.000000000000000000e+00 1.000000000000000000e+00 1.000000000000000000e+00 1.000000000000000000e+00 1.000000000000000000e+00 1.000000000000000000e+00 1.000000000000000000e+00 1.000000000000000000e+00 1.000000000000000000e+00 1.000000000000000000e+00 1.000000000000000000e+00 1.000000000000000000e+00 1.000000000000000000e+00 1.000000000000000000e+00 1.000000000000000000e+00 1.000000000000000000e+00 1.000000000000000000e+00 1.000000000000000000e+00 1.000000000000000000e+00 1.000000000000000000e+00 1.000000000000000000e+00 1.000000000000000000e+00 1.000000000000000000e+00 1.000000000000000000e+00 1.000000000000000000e+00 1.000000000000000000e+00 1.000000000000000000e+00 1.000000000000000000e+00 1.000000000000000000e+00 1.000000000000000000e+00 1.000000000000000000e+00 1.000000000000000000e+00 1.000000000000000000e+00 1.000000000000000000e+00 1.000000000000000000e+00 1.000000000000000000e+00 1.000000000000000000e+00 1.000000000000000000e+00 1.000000000000000000e+00 1.000000000000000000e+00 1.000000000000000000e+00 1.000000000000000000e+00 1.000000000000000000e+00 1.000000000000000000e+00
9.415077929396727940e-01 4.725694619542722963e-01 8.362054665165671308e-01 1.646016034370753056e-01 9.516779167384600280e-01 1.296012881592180088e-01 8.823666299963386361e-01 6.903291549522064807e-01 4.801706452459820751e-01 5.021507648644962796e-01 4.027501306365471878e-01 1.957842563814737868e-01 2.796362969631900341e-01 6.541722867550430198e-01 5.821282489596975029e-01 2.919365847851862483e-02 4.918158552716221932e-01 7.139294230183046430e-01 3.359437057534154780e-01 4.405159031616985299e-01 7.679777518586765606e-01 7.279901317043656617e-01 2.287614686418366627e-01 4.351326435065726583e-01 3.554385757907976284e-01 8.037257710527941912e-01 9.200447419885571243e-01 7.948330403586173487e-01 2.152690719201738601e-01 1.184645396578456467e-01 6.818626213343346176e-01 1.948085369294708658e-01 2.415559622476032287e-01 9.272574036951829468e-01 5.788107435006860646e-01 1.850892374878199131e-02 2.315535764084821757e-01 4.797671781741561503e-01 1.823026120207866807e-01 7.216950339115565383e-01 6.840071701002485849e-01 3.115849452647873052e-01 5.840704129296081515e-02 6.288978499616694195e-01 2.413461822512115162e-01 7.621210355085850097e-02 5.084803183007483574e-01 5.475355581463445809e-01 4.301276036001943082e-01 4.851186605812803920e-01 2.788641748670417364e-02 1.427889747685597843e-01 9.192648599456503256e-01 7.823063648093719902e-01 4.403842750443827114e-01 1.075455678391403769e-01 6.134844426696897113e-01 6.430277511988997663e-01 1.100256651940406671e-01 2.597591818819419140e-01 2.103444001093911497e-01 7.486531701168755992e-01 4.103361589706413515e-01 9.287134262438500043e-01 5.711104751757906106e-01 1.400278223068519567e-01 8.083604124535502811e-01 2.320941331722226053e-03 4.524226573994166722e-01 3.279037837780122144e-01 8.872625532697064887e-02 9.747972623104366185e-01 4.672939224633902988e-01 6.488673081124376463e-01 4.329275612379854810e-01 7.342851661115028516e-01 6.894765043976232022e-01 2.051331502348299196e-01 4.043212637355425576e-01 8.988933238989722518e-01 4.414865403277598022e-01 9.617913593597116062e-02 2.055673694983162214e-03 9.837805997097858191e-01 3.807719754018568104e-02 9.001097932832194948e-01 1.643927735938097712e-01 8.211030726135160052e-04 8.377611394645034792e-01 4.251091242291976657e-01 2.657705018808216302e-01 2.001123008969564188e-01 8.353288196002184307e-01 1.638266558647709648e-01 2.372527366404644233e-01 1.439483344502648920e-01 6.435327180212002673e-04 3.646005704229244859e-01 4.257522741738082317e-01 3.257378406270082793e-01 2.516258589681747981e-01 6.841167064361300953e-01 9.408522947910362699e-01 9.847658068698552647e-01 8.881485508578929045e-01 7.827649550120453492e-01 3.016009392424969793e-01 2.588707537646878221e-01 7.173032923972259001e-01 8.118975057618555979e-01 9.212345276042778197e-01 1.879955748288486550e-01 3.527041190995677811e-01 8.323951151317501296e-01 8.229556370534165666e-01 1.392189900237871258e-01 3.805736003723335648e-01 5.286557624565336733e-01 4.842155064935291797e-01 1.085380495027429282e-01
3.266968071405191854e-01 1.805087868374767313e-01 3.827311164859407144e-01 9.112979705542495479e-01 4.248491543113690483e-01 7.614951668984382138e-02 3.015926401323645312e-01 2.558694026299194180e-01 1.668499696549475830e-01 8.919080506899994543e-01 2.896653625323655223e-01 6.051078324786365314e-01 2.389629202586404100e-01 3.284982020949548387e-01 5.975811246616536954e-01 7.923296696501636038e-01 9.294167715097019222e-01 1.880760601613833405e-01 4.840754920261691741e-01 5.157401453528365209e-02 7.249036180080704606e-01 2.832483430200350982e-01 9.474687340857889106e-01 6.405061874708665171e-01 2.266960688993290285e-01 5.015485051165962105e-01 8.571221098384050885e-01 8.653134753708823235e-01 8.205673604676880784e-01 8.679173920372632578e-01 2.211924051117677426e-01 1.301579744092549173e-01 3.122533914989144010e-01 5.081334437413431715e-04 7.351558300172780225e-01 9.752271135925758561e-01 1.313323624163040826e-01 8.209951656177143509e-01 4.650302522234286418e-01 4.754477175791547161e-01 6.943760093837322289e-01 2.002675076331481563e-01 7.713731787721156419e-01 3.194298069262737627e-01 7.682110098161679668e-01 9.146041805370802580e-01 8.110560309196531703e-01 1.144101174077823968e-01 4.221405147720825868e-01 8.572594231566624812e-01 9.662342605570028997e-01 9.647037703026389854e-01 9.263648429712165733e-01 2.267186747372744726e-01 2.825414734922837567e-02 7.667003017053675151e-02 3.091630793362974972e-01 3.267505355916353604e-01 7.537779394747007311e-01 4.729825982748392388e-01 7.564558250751407531e-01 3.528698253619375613e-01 4.142762532946031584e-02 1.321139710789739352e-01 1.759319829969164806e-01 2.572988427718186921e-01 7.904960681431604241e-01 8.186699928352939581e-01 7.456374518160676645e-01 4.923062935739159762e-01 2.982243349625121054e-01 9.378483541201019236e-01 1.814074214382415118e-01 1.892570931020128855e-01 7.267656342207020614e-01 3.644553774432068849e-02 5.539502803771456652e-01 6.005577652044890025e-01 1.492704353982809984e-01 1.304554794815048213e-01 6.596758425068679488e-01 9.450877721098789319e-01 1.480845725279795744e-01 9.951701201912632744e-01 1.963559984313573148e-01 3.166663610290831876e-01 7.326174063216692733e-01 2.279058286575281755e-01 4.841335962398207737e-02 2.307694351294627966e-01 8.444919737608514998e-01 5.853593456780024074e-01 8.075225591736377995e-01 2.541782933068187367e-01 8.597933067480367786e-02 3.467392962136564005e-01 7.178358627203585973e-01 8.116416097999133994e-01 9.911972085638884877e-01 4.532711171718031284e-01 3.177752520920621437e-01 6.179524738160089292e-01 8.900610994286000111e-01 9.094025592764438670e-01 6.520561356578111756e-01 6.333173978459134545e-01 5.050632711283182807e-01 8.065893129823081820e-01 8.736004781297411759e-01 5.937545914677990755e-01 7.729338690763369879e-01 7.582668786183703880e-01 3.987612283516769329e-01 9.036108683693215848e-01 2.659636986248306023e-01 4.106429006682578153e-01 3.808936997396350499e-01 7.057941072918222369e-01 9.178852533265176028e-01 2.480674257122106319e-02
1.061989179126123783e-01 9.569117136608663587e-01 1.256478828884577403e-01 7.196255331854476411e-01 1.620924221713697655e-01 2.586286985029462304e-02 3.098059727960597032e-01 4.189187222928997256e-01 2.190986180296227159e-01 8.348803566110705177e-01 2.337292051620336597e-01 4.143266836879283543e-01 2.907838173191092945e-01 9.132134948057268886e-01 3.606331935814593992e-01 5.415687789530996277e-01 7.869032075472328636e-01 5.416903956252493435e-01 5.947246451875742856e-01 3.622684422828265083e-01 8.609637766652893376e-01 2.694485553793979360e-01 8.914756995751286217e-01 4.630481578411411725e-01 8.153163317117084752e-02 1.307953699988928520e-02 5.305325369602778007e-01 1.407480633990405572e-01 1.539278692899772594e-01 8.253547286183895437e-01 4.947895602457518249e-01 5.045523620511752627e-01 7.882522639141356091e-01 7.311767876531127808e-01 8.806304216488862746e-01 9.819198216603616247e-01 5.982422865150019975e-01 4.298512559590158544e-01 9.202644628998487564e-01 6.786138106281671689e-01 9.005232937738351096e-01 7.343907041582692363e-01 9.040447448870549962e-01 1.479948306331202446e-01 5.403305847427756214e-01 5.822890014668201664e-01 8.928924997314159340e-01 6.979708281501336709e-01 8.584492376773501521e-01 9.697259738196255530e-01 5.733810500059971504e-01 4.342499271725842602e-01 3.912009953092491221e-01 5.174567871479401893e-01 3.124296062472207147e-01 9.891757111510046663e-01 4.226096899941476082e-01 7.447343960873857860e-01 3.969577985456770319e-01 5.866894162593668804e-01 4.366875400171398303e-01 7.685348325773582179e-01 6.302578933351572488e-01 7.165290870021635561e-01 6.598034199695325119e-01 7.703264591894283253e-01 7.385737239419963851e-01 4.882165256982258228e-01 4.717655767124233623e-01 4.356520253887559146e-01 7.814496619450161941e-01 4.782397314820241441e-01 6.246978941411578390e-01 8.677762232989351121e-01 5.693489698806649679e-01 6.915138174304259477e-01 1.667374102290402060e-01 9.707779948520144364e-01 1.331811325869503015e-02 8.644503181737542841e-01 1.077089384569570596e-01 4.729677366615236966e-02 9.928162938332940612e-02 6.410588691136548389e-01 7.952205401745817692e-01 4.488543015531771818e-01 4.351450314857108204e-02 9.502107034510065553e-02 3.890131254704808361e-01 2.027897119072623600e-01 3.309505384814578344e-01 6.768645947713325395e-02 7.002071408687864373e-01 6.187655174318587026e-01 2.964307242899435479e-01 4.817378354654739958e-01 4.638736998693395730e-01 3.377565224314387216e-01 9.290813622919106285e-01 5.376194830721948703e-01 4.104657315786622851e-01 6.526703320027160693e-02 1.981882551337460496e-01 3.071462848718954364e-01 5.592366107504532780e-01 6.936982953988019007e-01 7.352296383204718344e-01 5.275118036697504786e-01 8.442881379351843130e-01 1.609592593562257923e-01 8.502731880960799904e-01 2.888386567672365235e-01 5.671880286405149851e-01 8.849975339027167376e-01 2.099688997924626932e-01 7.390569139444747027e-01 7.869220517576235308e-01 2.195676590758880442e-01 5.165152922392288737e-01 3.144579086975426430e-01
6.943253182643286392e-01 7.705360796327922479e-01 2.182195105067895602e-01 7.585608279496248718e-01 7.642924991013277936e-02 1.235422903900107450e-01 7.261349226903852649e-01 5.145082293379965588e-01 2.832230855961396232e-01 8.698157785634594852e-01 2.366892400345577130e-01 1.131190049277923659e-01 2.049912981372511434e-01 1.274180059323528624e-01 5.394040082561880611e-01 8.179342530085175200e-01 9.930162060168863380e-01 8.713922975072974086e-01 7.438576870376347738e-01 2.679451397848062744e-01 9.823600894852676513e-01 5.785407658508463502e-01 1.450655456812958155e-01 2.223694783807161901e-01 8.904281102206150766e-01 1.387595950150549706e-01 6.684001251403347554e-01 8.882362715789052787e-01 9.531775985033252852e-01 3.268400792753812789e-01 1.915261454071498504e-01 8.381957067692181740e-01 1.144679573167574071e-01 9.882978884684253673e-01 6.040065590692612618e-01 4.499021653964856426e-01 1.950884216832450280e-01 8.157294036892285272e-01 6.541281739718413091e-01 5.182436025769565635e-02 3.477413084100485774e-01 1.159114106193742666e-01 1.535362029320085364e-01 7.393865868667210961e-01 5.194551926554041854e-01 6.588354426291679333e-01 7.541099082617997995e-01 8.193607613653719479e-02 3.226632343196749186e-01 1.453634565925562283e-01 1.958852122178025290e-01 6.291056011268549852e-01 2.023488176181517106e-01 3.051097246834495458e-01 9.922299863946915099e-02 3.903162521958472020e-01 2.470569609034675151e-01 9.070335498638981697e-02 9.790997802286777185e-01 3.601004039857166328e-01 8.934042737700623737e-01 9.132340282847289936e-01 7.307996120644046911e-01 3.341055090802624861e-01 7.825852391093021110e-01 8.192556922399295560e-01 6.560556564516967226e-01 2.294523486661582679e-01 2.960395096461987396e-01 5.094233260798404217e-01 5.339819639446732324e-01 4.729219564815712040e-02 6.683245475703712968e-01 6.990838431854486945e-01 3.151862087066583662e-01 5.147190907548395700e-01 6.239975147365944830e-01 8.440469478427926608e-01 6.436548885864604719e-01 6.111783871774116861e-01 9.843456936855157213e-01 9.428280913331633650e-01 4.021613477612362431e-01 2.026255832985790484e-02 9.504134044645425883e-01 5.569529125921584001e-01 6.555723392786201309e-01 8.680735111671488147e-01 7.378747745924403301e-01 8.446464045527598552e-01 5.482017566386387930e-01 1.908384823482179860e-01 2.937945727739955659e-01 3.298502481487364246e-02 7.192246808981983541e-02 4.874137950989720913e-01 5.535894910960414972e-01 4.257073647944513706e-01 3.869314735892547263e-01 7.261396322272167803e-01 6.253676862643163803e-01 8.193125588273274529e-01 9.414739601514690026e-01 4.993480333100274171e-01 6.770454288433150891e-01 7.708647960429720891e-01 5.123461206713256777e-01 8.293062673040647592e-01 2.236203446310157661e-01 6.570325920612861692e-01 6.994709774098517574e-02 7.991458551691035250e-01 6.756807449795003695e-01 3.573995076088564149e-01 8.163237312828789394e-01 2.704290219785565608e-01 8.174652062412061104e-01 6.295816326308465438e-01 2.668187351760639148e-01 2.212872560585776860e-03
4.309633948693661898e-01 4.977320432203596878e-01 7.130907966845307921e-01 7.978170633268696355e-01 4.864223542980267156e-01 4.706169151818679897e-01 6.964156086602537599e-01 2.772755157739122955e-01 1.321637922484590888e-01 3.912096037620503841e-01 8.198753035265468059e-01 5.842249102773706682e-01 3.662501871532741760e-01 7.885706278520857593e-01 8.057992487990859320e-01 6.261964404224498182e-01 7.771939777998813081e-01 1.316997041692864467e-01 2.810801901818819060e-01 7.666089643815245935e-01 7.986430835593472111e-01 4.867566625928914092e-01 9.845447772982942602e-01 9.601472819384943014e-01 8.573565950172487016e-01 6.251245559832659948e-01 2.715456587007089029e-01 3.935459949401240998e-01 7.837172692082633452e-01 4.932659366710906435e-01 1.291000577139325145e-01 7.120998778942765339e-01 8.767278362869443953e-01 8.470120775160686621e-01 2.900475752842507360e-01 8.984101488630829024e-01 8.687081371711967703e-01 9.979148114355895771e-01 5.940709276095968994e-01 9.506195014271767718e-01 5.711959583680003005e-01 9.318294090289298559e-01 3.744392859014168407e-01 4.742899287201528535e-01 9.639822838222037449e-01 7.387213389862522517e-01 5.226563834253754592e-01 3.025751838499041169e-01 7.016427256638207988e-01 8.395979298058323659e-01 4.088771319852432251e-01 7.307328400033190619e-01 6.756724111299058366e-01 9.379810114764584039e-01 4.800922878850124587e-01 5.615495056712258570e-01 6.305039113876352852e-01 9.185858307506011844e-01 7.266101656212637927e-01 4.612879662941309356e-01 1.909580046480823246e-01 7.301562506325708357e-01 9.267170981537382612e-01 3.688113217838220326e-01 7.734942857895648061e-01 5.904448729878628566e-01 5.588381311914549787e-01 7.588513626844132220e-01 9.140478819156149237e-01 5.030355123095572312e-01 9.700604812879646266e-01 9.958777547701018751e-01 2.644827893442451838e-01 1.513224882410355576e-01 7.952889263860014601e-01 4.182784559867405161e-01 7.931541232408473308e-01 6.931541539655469153e-01 4.737229450757868277e-01 2.286907611609979574e-01 7.498335288450644898e-01 4.468388628125901096e-01 4.266736663637428206e-01 5.451709174838350602e-01 1.538701990638603467e-01 2.534171138154583947e-01 8.395003101115785515e-01 7.193091000105024113e-01 3.379005843595448422e-01 2.548981619733080572e-01 2.592402196649895574e-01 8.874098811045437740e-01 6.825936413284943161e-01 2.003810917813809711e-01 5.843704535866960370e-01 6.455673542218265393e-02 8.455932601920659319e-01 9.320196860476375189e-01 8.199900057701881018e-02 6.723148428435420376e-01 1.040258648016634258e-01 7.576177399578873928e-01 8.099041669125808252e-01 3.198355499032881077e-01 2.880312745652494621e-01 2.988004304456155502e-01 3.867781429526069292e-01 8.842292539073607349e-01 5.131876800376700132e-01 3.188491740126613294e-01 6.030067577109088361e-02 1.851077726354850572e-01 3.934576539376565263e-01 6.286409510407203749e-01 1.380251343814595799e-01 6.720539714133781928e-01 1.792682317797503755e-01 2.721132205023957251e-01 9.521690745534272526e-01 2.789315237624100385e-01
5.430759361458563639e-01 9.383877177024635419e-01 8.182255800974401749e-01 9.671183261788572905e-01 2.833597509747428633e-01 5.684883719197602048e-01 3.036315466500841831e-01 9.041694368187548347e-01 2.544108124091793988e-01 1.744861158373820498e-01 3.134188725265645292e-01 4.093057187918294204e-01 8.819732158361515140e-03 3.203407305986547549e-01 9.117636008737456388e-01 9.121440715931409260e-01 1.577134225258407518e-01 3.957397576596467514e-01 1.672756153715334593e-01 6.020345588683502225e-01 8.495380639165395209e-01 2.919580939758337212e-02 1.503203097566393476e-01 3.000617771454958671e-01 3.936620438367438579e-01 1.582859453042689823e-01 1.924190236979361757e-02 2.657633765161094841e-01 1.783654697358478813e-01 2.511660616650630562e-01 1.160324602541124017e-01 7.276896069456939564e-01 9.856725528860458274e-01 7.467067774450852902e-01 6.829514327681524000e-01 7.633704181660954102e-01 3.993402968044417189e-01 4.975054388704074348e-01 4.355706389039304405e-02 2.496698635018611556e-01 2.434014477643617891e-01 1.661555387074902246e-01 2.349917773257932385e-01 8.881335434783820260e-01 6.225342902988829641e-01 2.031304525299382213e-02 4.947634836508743028e-01 3.312886146691197409e-01 7.569289777119152518e-01 3.692754393549253500e-01 5.891902833116399174e-01 6.426277427445762358e-01 5.015742401227273328e-01 1.263571750793334170e-01 6.973787999148154393e-01 1.571105155691686628e-01 7.512912270707791107e-01 8.796480745725633321e-01 4.602105433542957869e-02 8.693376032380919494e-01 7.040835269183705059e-01 7.323316481931588795e-01 1.392049566144324402e-01 4.611760532479881602e-01 6.592614651474881793e-01 6.225725996045612387e-01 5.896350175380443703e-01 8.484678607886406709e-01 6.962414422592964058e-01 6.732468940584173112e-01 7.447293242059727092e-01 6.940852617447103023e-01 4.133010299450309288e-01 4.516342964302999530e-02 9.800333401314516024e-01 6.487854046932184371e-01 8.341900832686137690e-01 8.294626361559630512e-01 6.716742748259816320e-01 6.102920413654779885e-01 9.564133645127104177e-02 3.607209050311522835e-01 4.499889009009020446e-01 9.322915242886782305e-01 4.995593106934290706e-01 3.097120630523700902e-01 3.889210658164349299e-01 6.125346660549727540e-01 7.750279597344111870e-02 9.028230040020671643e-01 1.147526419675944931e-01 5.108475094937876548e-01 8.434463519685266863e-01 8.947250685244181323e-01 6.470898466554492190e-01 8.362960375893409015e-01 2.449917510352458416e-01 2.857009960795439119e-01 5.324517940399664528e-01 5.042015137431204996e-01 7.366458905774242449e-02 6.051128868979316344e-01 5.429204755391636716e-02 3.264291823893845645e-01 9.812847111790090615e-01 1.217778647744089948e-01 2.124460552411907566e-01 4.755285590208923052e-01 7.773867765180757505e-01 1.097869858884640282e-01 2.711144323134500045e-01 9.733936723464278185e-01 3.264301047638877851e-01 5.190480986780882100e-01 4.877833991769648936e-01 1.876872474597367502e-01 6.737364054172556571e-01 7.447884922285125109e-01 5.958996991413716415e-01 7.820650740500000309e-01
2.046337185077781173e-01 5.652952027271362923e-01 3.206406733143180032e-01 1.585957397144837078e-01 4.719147973165597199e-01 2.175303438843313453e-01 9.419354256416171411e-01 2.005184318519193098e-01 8.559971187713169005e-01 8.328421306694617776e-01 6.688583132042159596e-01 9.567163625639335534e-01 6.518877161934556463e-01 1.195609966824761061e-01 8.346335923311112293e-01 8.473815453948597698e-01 1.909628387827746465e-01 8.045175251139687900e-01 4.354665697626229903e-01 9.047341754756066390e-01 6.522903617342512561e-02 9.416204813785504779e-01 9.926692275697150958e-01 1.796815285321918809e-01 3.882926950324602222e-01 8.468517747491351999e-01 3.393586295084937143e-01 2.656722630686657594e-01 1.560556885743735744e-02 5.434858685706362991e-01 9.049676218991118404e-01 1.504110134710288094e-01 5.188179616089861890e-01 9.766269727899308251e-01 8.818288816151963472e-01 5.577292797694415327e-01 9.763681089133010582e-01 7.404364001231574788e-01 3.579925433994178841e-01 3.898531735602797088e-01 8.046652795220641252e-01 7.240057169440931029e-01 5.745888870494568756e-01 3.324606213453469294e-01 8.368108033096969267e-01 7.648822834903258316e-01 4.416743447960654878e-01 7.015025238880880920e-01 6.161535973759962870e-01 8.504703459772688934e-02 4.444290812613193031e-01 5.393659609525051080e-01 9.991857419128148399e-01 7.280238677284027737e-01 2.778304882903460671e-01 6.045934410402175052e-01 4.810444266361881827e-01 4.543347219458274688e-01 4.356670640487176893e-01 7.654941605830855034e-01 6.550407402340359120e-01 3.474497586958406048e-01 7.692839158643496322e-01 3.249760859019376058e-01 2.303960582684451142e-01 3.485737725799485931e-01 5.493628056129226112e-01 9.407443015461937064e-01 8.626659174438362498e-01 5.950317098095628809e-01 9.685722486744821058e-01 8.071967319955226650e-01 3.948262266543857146e-01 9.934434024093168336e-01 8.697160040562480487e-01 2.494153536725841613e-01 4.124486196259222748e-01 3.739097263856516751e-01 7.285050088074225272e-01 2.084761534839786323e-01 3.506138324991210364e-01 7.896214837323608515e-01 5.057193966710848976e-01 5.421684426204951279e-01 1.256242647081357022e-01 3.908008491348426983e-01 1.504160461611605548e-01 9.468650865902333846e-01 5.866711128404733522e-01 2.814545623797215512e-01 9.624149127190985142e-01 9.073442888553597818e-01 6.567760305455838665e-02 7.252792490122061952e-01 6.532759850790077483e-01 2.930145873835915404e-01 7.018804128178167678e-01 1.273582997516289339e-01 6.322412021520262826e-01 1.625563740560131976e-02 6.956068493367962846e-01 3.445630248109483595e-01 4.807550892275214149e-01 3.323726166762696055e-01 3.773605479913969551e-01 6.493721320757848137e-01 6.031169686391765206e-01 2.787359474831827555e-01 3.934230427359898252e-01 5.264933608136826981e-01 2.705383238533919377e-01 3.555580333203780530e-01 5.640199881861633902e-01 4.554053326587840234e-01 1.053438817946059647e-01 9.937683154510102979e-01 4.039949111314957708e-01 4.988354821877796219e-01 1.341156531715995692e-01 8.700307583079870399e-01
4.206149703868768963e-01 8.604598842736571607e-01 5.762268225173710068e-01 6.210896616896993683e-01 7.323043460961297102e-01 9.749869626584333204e-01 7.240156803819834952e-01 6.894044988927459094e-01 9.019160771593953685e-01 4.799359429363507790e-01 4.990362727253612185e-01 9.995443666869262556e-01 5.580508127894286963e-01 3.386229891260057467e-01 2.102334074165360667e-01 6.781574550231405096e-01 4.149813651470054543e-01 4.471102075714604718e-01 2.683070187322704747e-01 9.247092788677072628e-01 3.399455739271854959e-01 2.750424721758485402e-01 3.584900141516914607e-01 5.666267182804798352e-01 8.429758066497871072e-01 4.613659840056119066e-01 2.921747381517292297e-03 9.745587073272282685e-01 4.891192601124250139e-03 5.129504307579080269e-01 5.513918170539021668e-01 8.127452252415610090e-01 8.817247700543928701e-02 9.873182016406478745e-02 6.665169690824339632e-01 9.556761998866062369e-01 5.742795438554384457e-01 5.990488305340085917e-01 2.931712820370877548e-01 9.197327359276175063e-01 7.455998828252574651e-02 1.830574992605793483e-01 4.734055616521277710e-01 6.773870537109379919e-01 8.348260084656441427e-01 9.331328798630884602e-01 9.907164916033661672e-01 1.572546580795245452e-01 2.927383817231185015e-01 6.023473470196567536e-01 3.356476072965067781e-01 9.901497005658603801e-01 1.159862398293923791e-01 9.292680412002315427e-01 8.908726898360311841e-01 5.140776627982420743e-01 2.473483653859099851e-01 1.686104022626229160e-01 5.198497409105334865e-01 6.319984023580111909e-01 1.314458820796990945e-01 6.870678666106240229e-01 6.178698325729883312e-01 1.620572965715328939e-01 8.761524074537019313e-01 4.517923848252682895e-01 3.331936844285059429e-01 4.275934961528781164e-01 9.670553485091654133e-01 6.258359236198063336e-02 1.980432883545379941e-02 4.964372815006625750e-01 3.610413900696911593e-01 2.567852203918588039e-01 4.014577505993549567e-01 9.973182026428272229e-01 7.035404954822530588e-01 8.395982130858539172e-01 4.252262911110618049e-01 5.543199473339625039e-01 2.756891154285217027e-01 8.994810965058536167e-01 9.338425408530169891e-01 4.068974162536191930e-01 8.168881552958050518e-01 1.528268413946110016e-02 3.763988374047658736e-01 4.172730815610092847e-01 4.070782123073923842e-01 7.918203967073952354e-01 8.242310292413063122e-01 4.352685382059886532e-01 8.098103480177230029e-01 8.460764138737350004e-01 5.300123462535532015e-01 9.371567416283692609e-01 1.613158989161153078e-01 7.900550179589886923e-01 4.848862878900650486e-01 2.551362979782145768e-02 4.735210017256075155e-02 4.412268218964603417e-01 4.423275227643141960e-02 8.226278110368937524e-01 8.764671768351629533e-01 4.784258171598818610e-01 9.513005168272627987e-01 6.322339742831919462e-01 9.369859815011792881e-01 9.337947553476795282e-01 2.278577976241360492e-01 5.728534439837238423e-01 1.444890356727511760e-01 5.306979172377829235e-01 8.838266193024956197e-01 7.789227849825843819e-01 4.683358710774876421e-01 6.826363001153152865e-01 9.183868984547627345e-02 9.946671907824168324e-01
5.550706308861690363e-01 5.531639375449659557e-02 5.249907371618759422e-01 2.121105932196045707e-01 2.610629462178718496e-01 4.296755235476125145e-01 5.544732997511681027e-02 8.709228567597948611e-02 2.302281956252071327e-01 9.051295486215620301e-01 7.621216272980372297e-01 4.677744526292779703e-01 1.220265494390203598e-01 6.809592208434123162e-01 9.749677530954992122e-01 2.444731709170465672e-01 3.978832848286363300e-01 4.671865891543145466e-01 5.999958828869492722e-01 4.854181338589502737e-02 8.966718630619556762e-01 7.327012176992799830e-01 4.902817450510312813e-01 4.907065672595952721e-01 3.703762704838264863e-02 2.331969887323092072e-01 7.906405533686711173e-01 2.875631500645969840e-01 3.182913621711410679e-01 2.331645504625983190e-01 5.967261596702821969e-01 1.034679957610640244e-02 5.575065917137933535e-02 7.170005086785081749e-01 1.669962698999380990e-01 1.858137030442763571e-02 8.653306307375263629e-01 8.245741390458153353e-01 6.046889676029858496e-01 4.548794337742911864e-02 3.906820982811531895e-01 9.441859824452070171e-01 7.609565028845611812e-01 2.067476537228540856e-02 6.753277787335493221e-01 4.379115545360622308e-01 6.433582000461790518e-02 6.221325113355986591e-01 3.885853559862895157e-01 9.752664805206860965e-01 6.327361471055948927e-01 2.749001100147007159e-01 5.099644259058847551e-01 2.769969595356013281e-01 1.674539301394878388e-01 7.122563015613393445e-01 7.454658263431325205e-01 6.847002618961824938e-01 8.005127933699697218e-01 8.133530420254611037e-01 5.951180591566160860e-01 7.130357090936915165e-01 6.660072050512444441e-02 2.503305409022341665e-01 5.986474363356906192e-01 2.100139513085650389e-01 7.934732280214931155e-01 8.862144300313239409e-01 9.884411873754395117e-02 9.863975294815393591e-01 8.384596510112721779e-01 1.030077013879191483e-01 1.584244100572306246e-01 5.384810203284167152e-01 9.620421437753878813e-03 7.345766846121370985e-01 5.833094406302830048e-01 9.177022111168676721e-01 2.217622279536733965e-01 8.419750044602742900e-01 7.835759867560988523e-01 2.763890183876760442e-02 2.885327842757312578e-02 6.968394387882316243e-01 5.955135002093308039e-01 1.085259618731543307e-01 2.886623929063408811e-01 4.338284896638165966e-01 8.262716627062205443e-02 5.556263494602342590e-02 6.988051107632946568e-01 3.297602402791663945e-01 6.852642750138411287e-01 5.853903558272768315e-01 2.014538094519897626e-01 3.974326715014628864e-01 4.279491922024684092e-01 7.569841925207454469e-01 5.563817158535483420e-01 2.219792647128282503e-01 1.337268528687655111e-01 7.766729903794233891e-04 9.094270322024253783e-01 4.041337520951726603e-01 9.867377161127194318e-01 1.870416846891664875e-02 8.357616156993944445e-01 8.259621784342945361e-01 7.913438393274674354e-01 7.415229702766613640e-01 5.371760033023176284e-02 3.547477670072339828e-01 9.633674187270587774e-01 2.225720812710297869e-01 4.765674481970445520e-01 2.695161498800009436e-01 6.229721387156161860e-01 1.049601564744606641e-02 1.910701932106079193e-01 1.212422097183084579e-01
4.813742838604443963e-01 8.610172727995125674e-01 6.128056695038970325e-01 1.073622226533062607e+00 1.613704427375644290e-01 2.799610036890434195e-01 5.522293710286629853e-01 5.795614000906769148e-01 8.120372283339538644e-02 4.700349236668169839e-01 4.132243496683533079e-01 2.608229132500759495e-01 8.811920978857450126e-02 3.703485835136448578e-01 8.857909886831359936e-01 9.465726157924305717e-01 8.074925940926939161e-01 4.666396520129199033e-01 3.301557316877939963e-01 5.109647561381109870e-01 1.162288521186873869e+00 2.862469308081168617e-01 5.064843132872459686e-01 5.306840290164517304e-01 8.414461776241743962e-01 2.175446880914417846e-01 2.604330114268128549e-01 5.072361482895251239e-01 7.772872665689567473e-01 2.066100561165420957e-01 3.340631055444179265e-02 8.695952215000857244e-01 8.766524968427764630e-01 1.125866593645829417e+00 4.576870894235171017e-01 7.961435746698564131e-01 4.760929962570850105e-01 9.543800463156747460e-01 3.913505764147071631e-01 4.843491207754058170e-01 2.532165526022290836e-01 4.546745828430771019e-01 1.094996399239385465e-01 7.802123261876270366e-01 7.933222416488343587e-01 4.900929884727315833e-01 5.433211768141310571e-01 1.040087043319201099e-01 5.846777772792970396e-01 4.312097841787743135e-01 2.763483576874710135e-01 6.713573782867435780e-01 3.745274847541279484e-01 4.944332288404198472e-01 3.633354994581509678e-01 2.461841690751101486e-01 5.115054160397407568e-01 8.129038810803885795e-01 7.443583249350749220e-01 5.491033786011009221e-01 6.651848844038006359e-01 9.517170918501376420e-01 7.061253364749978667e-01 2.301658171815512410e-01 8.226793730246426684e-01 7.037008395417805318e-01 5.451892675714572478e-01 6.742007408738295293e-01 7.039375338126444559e-01 4.829091160790459636e-01 8.903879207535663198e-01 7.378817023931928398e-01 3.437132940490386090e-01 2.568282253137580962e-01 8.461460851801427818e-01 4.304075552365418389e-01 8.571697283175501170e-01 9.404430980506133242e-01 5.449256878777670732e-01 3.991474304736105094e-01 7.701670154478232888e-01 6.093546752265390776e-01 2.731370890677071728e-01 5.833946934003721996e-01 5.882605912231640977e-01 2.351691712098003817e-01 6.428977290702353464e-01 8.230779596335289217e-01 3.323213356370336435e-01 7.967449991282958832e-01 1.904494131560921788e-01 5.424404006914785858e-01 6.318255394112817225e-01 4.208867710257803707e-01 3.826934690429124042e-01 4.705654211143923682e-01 5.407551222047685124e-01 5.657562573907082282e-01 2.199723571629804697e-01 6.167525899298341718e-01 2.036662976261822133e-01 8.057096574205144801e-01 7.726328018266239717e-01 2.290996242339665145e-01 7.521361061194908881e-01 3.491720396809361304e-01 2.286146028101834760e-01 8.478688344499274443e-01 4.588489268902524176e-01 2.727049025349013167e-01 4.101590169474071679e-02 8.101971133440464268e-01 3.589550039371700030e-01 3.961673910528864528e-01 4.616840082446280746e-01 2.800074496398923807e-01 5.771536031624903140e-01 5.125642675371643309e-01 6.664573177068309207e-01 3.447167359011106824e-01
-1.884883697246074163e+01 -1.960323772111549445e+01 -2.124919987626257267e+01 -2.148269940959811564e+01 -1.962612356006732739e+01 -1.640574688404166892e+01 -2.190263369535808735e+01 -2.606778875340728163e+01 -2.340033420281938703e+01 -2.334172050245778607e+01 -2.502664937996753380e+01 -2.556108303254225689e+01 -2.397376218957415617e+01 -2.135797208082666643e+01 -2.509840492383867172e+01 -2.328770892535529313e+01 -2.260926387072184696e+01 -2.551087016637500682e+01 -2.953763594243797641e+01 -2.302085656454081075e+01 -2.225684576504008305e+01 -2.383107835486893933e+01 -1.923292476401413964e+01 -2.742270168705449507e+01 -2.099366192339098802e+01 -1.901341866940328984e+01 -2.018496443642209925e+01 -1.798673372315549557e+01 -2.042976260638080532e+01 -2.044277434695124640e+01 -2.660363700311695467e+01 -2.277936994012298655e+01 -2.481100954335311215e+01 -1.694022260690275772e+01 -2.325175983154821324e+01 -1.545351335495126399e+01 -2.339894802737102353e+01 -2.510922995217212161e+01 -2.119897886357008332e+01 -2.422095764659098549e+01 -2.236630599168705658e+01 -2.421471249654155855e+01 -1.883478749181096035e+01 -2.234518129267995334e+01 -2.740639581726178520e+01 -2.221420476044571757e+01 -2.321735205140419467e+01 -2.390332433983506988e+01 -2.408030221601996246e+01 -2.079815625346738628e+01 -2.016875618596090547e+01 -2.082395327801366491e+01 -1.922024762837626355e+01 -2.449975123329897642e+01 -2.214349509520683057e+01 -1.587024618048475588e+01 -2.631106453104336040e+01 -2.477733227999417309e+01 -2.432384105721562406e+01 -2.846271358802154339e+01 -2.652044582483071267e+01 -2.309165023189514088e+01 -2.195651583344567470e+01 -1.879084270799512169e+01 -2.545614171805841508e+01 -2.386047222193684902e+01 -2.348421831004109350e+01 -2.246807449919068134e+01 -2.711047893671849351e+01 -2.755021133259208455e+01 -2.296319761298205364e+01 -1.865722136608406956e+01 -2.556176736864565058e+01 -2.122771568123817687e+01 -2.665540159259073150e+01 -2.011775629359281936e+01 -2.278398479154865441e+01 -1.999813774789187804e+01 -1.871205200679050051e+01 -1.753953475790564553e+01 -2.130733262365658831e+01 -1.574564679044409488e+01 -1.713882114422077407e+01 -1.687414417876656003e+01 -1.974086463070887021e+01 -2.166233292822493084e+01 -1.851482191822312373e+01 -1.743688521658076596e+01 -1.896520486008431661e+01 -2.465244455580057448e+01 -2.402451512451256121e+01 -1.952054969442316334e+01 -2.289900548354644272e+01 -2.444586501869622808e+01 -2.125896541663316697e+01 -2.431811872678778030e+01 -2.219407173241678066e+01 -2.467944183435447769e+01 -1.902377622713089877e+01 -2.997464312856535784e+01 -2.559625302548442605e+01 -2.055647557582037521e+01 -1.734467555369626979e+01 -1.787300482793095568e+01 -2.141406789757942164e+01 -2.326431075606448218e+01 -2.611627551784452450e+01 -2.706174699249110915e+01 -2.134585140593706853e+01 -2.108304628809368708e+01 -1.914463072391838594e+01 -2.370164879602240404e+01 -2.900897853021521300e+01 -1.888693717689178797e+01 -2.186451044507291641e+01 -2.410316343222883617e+01 -2.576189969067343810e+01 -2.299999745749775570e+01 -2.269876175278680108e+01 -1.839262860898735852e+01
